"build","computer.platform","date","time","subject","group","blockcode","blocknum","trialcode","trialnum","parameters.immediateAmount","parameters.delayedAmount","values.trialCount","values.choiceNo","values.index","values.indexAdjustment","values.delayChoice","response","latency","values.ED50","values.k"
"5.0.14.0","win","051121","12:30:30","42","141927376","minuteDiscounting","1","choice","1","5","10","1","1","16","8","3 weeks","delayed","3641","Not yet determined","Not yet determined"
"5.0.14.0","win","051121","12:30:30","42","141927376","minuteDiscounting","1","choice","2","5","10","2","2","24","4","2 years","now","2764","Not yet determined","Not yet determined"
"5.0.14.0","win","051121","12:30:30","42","141927376","minuteDiscounting","1","choice","3","5","10","3","3","20","2","4 months","now","4389","Not yet determined","Not yet determined"
"5.0.14.0","win","051121","12:30:30","42","141927376","minuteDiscounting","1","choice","4","5","10","4","4","18","1","2 months","delayed","4059","Not yet determined","Not yet determined"
"5.0.14.0","win","051121","12:30:30","42","141927376","minuteDiscounting","1","choice","5","5","10","5","5","19","0.5","3 months","now","3911","74.56","0.0134"
"5.0.14.0","win","051121","06:37:28","50","285977513","minuteDiscounting","1","choice","1","5","10","1","1","16","8","3 weeks","now","2842","Not yet determined","Not yet determined"
"5.0.14.0","win","051121","06:37:28","50","285977513","minuteDiscounting","1","choice","2","5","10","2","2","8","4","1 day","now","972","Not yet determined","Not yet determined"
"5.0.14.0","win","051121","06:37:28","50","285977513","minuteDiscounting","1","choice","3","5","10","3","3","4","2","4hr","delayed","361","Not yet determined","Not yet determined"
"5.0.14.0","win","051121","06:37:28","50","285977513","minuteDiscounting","1","choice","4","5","10","4","4","6","1","9hr","now","1486","Not yet determined","Not yet determined"
"5.0.14.0","win","051121","06:37:28","50","285977513","minuteDiscounting","1","choice","5","5","10","5","5","5","0.5","6hr","now","606","0.2041","4.9"
"5.0.14.0","win","051121","09:47:14","54","919575683","minuteDiscounting","1","choice","1","5","10","1","1","16","8","3 weeks","now","48489","Not yet determined","Not yet determined"
"5.0.14.0","win","051121","09:47:14","54","919575683","minuteDiscounting","1","choice","2","5","10","2","2","8","4","1 day","now","808","Not yet determined","Not yet determined"
"5.0.14.0","win","051121","09:47:14","54","919575683","minuteDiscounting","1","choice","3","5","10","3","3","4","2","4hr","now","809","Not yet determined","Not yet determined"
"5.0.14.0","win","051121","09:47:14","54","919575683","minuteDiscounting","1","choice","4","5","10","4","4","2","1","2hr","now","657","Not yet determined","Not yet determined"
"5.0.14.0","win","051121","09:47:14","54","919575683","minuteDiscounting","1","choice","5","5","10","5","5","1","0.5","1hr","now","720","0.04167","24"
"5.0.14.0","win","051121","08:47:30","57","838866360","minuteDiscounting","1","choice","1","5","10","1","1","16","8","3 weeks","now","32260","Not yet determined","Not yet determined"
"5.0.14.0","win","051121","08:47:30","57","838866360","minuteDiscounting","1","choice","2","5","10","2","2","8","4","1 day","now","3028","Not yet determined","Not yet determined"
"5.0.14.0","win","051121","08:47:30","57","838866360","minuteDiscounting","1","choice","3","5","10","3","3","4","2","4hr","now","1074","Not yet determined","Not yet determined"
"5.0.14.0","win","051121","08:47:30","57","838866360","minuteDiscounting","1","choice","4","5","10","4","4","2","1","2hr","now","15042","Not yet determined","Not yet determined"
"5.0.14.0","win","051121","08:47:30","57","838866360","minuteDiscounting","1","choice","5","5","10","5","5","1","0.5","1hr","now","466","0.04167","24"
"5.0.14.0","win","050521","04:15:12","72","192911033","minuteDiscounting","1","choice","1","5","10","1","1","16","8","3 weeks","delayed","1383","Not yet determined","Not yet determined"
"5.0.14.0","win","050521","04:15:12","72","192911033","minuteDiscounting","1","choice","2","5","10","2","2","24","4","2 years","delayed","321","Not yet determined","Not yet determined"
"5.0.14.0","win","050521","04:15:12","72","192911033","minuteDiscounting","1","choice","3","5","10","3","3","28","2","8 years","delayed","304","Not yet determined","Not yet determined"
"5.0.14.0","win","050521","04:15:12","72","192911033","minuteDiscounting","1","choice","4","5","10","4","4","30","1","18 years","delayed","209","Not yet determined","Not yet determined"
"5.0.14.0","win","050521","04:15:12","72","192911033","minuteDiscounting","1","choice","5","5","10","5","5","31","0.5","25 years","now","39","7748","0.000129"
"5.0.14.0","win","051121","10:00:58","77","708142634","minuteDiscounting","1","choice","1","5","10","1","1","16","8","3 weeks","now","31156","Not yet determined","Not yet determined"
"5.0.14.0","win","051121","10:00:58","77","708142634","minuteDiscounting","1","choice","2","5","10","2","2","8","4","1 day","now","471","Not yet determined","Not yet determined"
"5.0.14.0","win","051121","10:00:58","77","708142634","minuteDiscounting","1","choice","3","5","10","3","3","4","2","4hr","now","2032","Not yet determined","Not yet determined"
"5.0.14.0","win","051121","10:00:58","77","708142634","minuteDiscounting","1","choice","4","5","10","4","4","2","1","2hr","now","491","Not yet determined","Not yet determined"
"5.0.14.0","win","051121","10:00:58","77","708142634","minuteDiscounting","1","choice","5","5","10","5","5","1","0.5","1hr","now","989","0.04167","24"
"5.0.14.0","win","051121","09:02:01","80","272222174","minuteDiscounting","1","choice","1","5","10","1","1","16","8","3 weeks","now","27214","Not yet determined","Not yet determined"
"5.0.14.0","win","051121","09:02:01","80","272222174","minuteDiscounting","1","choice","2","5","10","2","2","8","4","1 day","now","870","Not yet determined","Not yet determined"
"5.0.14.0","win","051121","09:02:01","80","272222174","minuteDiscounting","1","choice","3","5","10","3","3","4","2","4hr","now","2253","Not yet determined","Not yet determined"
"5.0.14.0","win","051121","09:02:01","80","272222174","minuteDiscounting","1","choice","4","5","10","4","4","2","1","2hr","now","1051","Not yet determined","Not yet determined"
"5.0.14.0","win","051121","09:02:01","80","272222174","minuteDiscounting","1","choice","5","5","10","5","5","1","0.5","1hr","now","1066","0.04167","24"
"5.0.14.0","win","051121","09:03:56","62","933264771","minuteDiscounting","1","choice","1","5","10","1","1","16","8","3 weeks","delayed","2205","Not yet determined","Not yet determined"
"5.0.14.0","win","051121","09:03:56","62","933264771","minuteDiscounting","1","choice","2","5","10","2","2","24","4","2 years","delayed","2080","Not yet determined","Not yet determined"
"5.0.14.0","win","051121","09:03:56","62","933264771","minuteDiscounting","1","choice","3","5","10","3","3","28","2","8 years","delayed","1025","Not yet determined","Not yet determined"
"5.0.14.0","win","051121","09:03:56","62","933264771","minuteDiscounting","1","choice","4","5","10","4","4","30","1","18 years","now","911","Not yet determined","Not yet determined"
"5.0.14.0","win","051121","09:03:56","62","933264771","minuteDiscounting","1","choice","5","5","10","5","5","29","0.5","12 years","now","874","3579","0.000279"
"5.0.14.0","win","051121","10:03:55","81","755867372","minuteDiscounting","1","choice","1","5","10","1","1","16","8","3 weeks","now","13917","Not yet determined","Not yet determined"
"5.0.14.0","win","051121","10:03:55","81","755867372","minuteDiscounting","1","choice","2","5","10","2","2","8","4","1 day","now","996","Not yet determined","Not yet determined"
"5.0.14.0","win","051121","10:03:55","81","755867372","minuteDiscounting","1","choice","3","5","10","3","3","4","2","4hr","now","7980","Not yet determined","Not yet determined"
"5.0.14.0","win","051121","10:03:55","81","755867372","minuteDiscounting","1","choice","4","5","10","4","4","2","1","2hr","now","7131","Not yet determined","Not yet determined"
"5.0.14.0","win","051121","10:03:55","81","755867372","minuteDiscounting","1","choice","5","5","10","5","5","1","0.5","1hr","now","1260","0.04167","24"
"5.0.14.0","win","051121","10:02:20","82","927227017","minuteDiscounting","1","choice","1","5","10","1","1","16","8","3 weeks","delayed","15887","Not yet determined","Not yet determined"
"5.0.14.0","win","051121","10:02:20","82","927227017","minuteDiscounting","1","choice","2","5","10","2","2","24","4","2 years","now","9958","Not yet determined","Not yet determined"
"5.0.14.0","win","051121","10:02:20","82","927227017","minuteDiscounting","1","choice","3","5","10","3","3","20","2","4 months","now","5922","Not yet determined","Not yet determined"
"5.0.14.0","win","051121","10:02:20","82","927227017","minuteDiscounting","1","choice","4","5","10","4","4","18","1","2 months","now","1061","Not yet determined","Not yet determined"
"5.0.14.0","win","051121","10:02:20","82","927227017","minuteDiscounting","1","choice","5","5","10","5","5","17","0.5","1 month","now","603","25.28","0.0396"
"5.0.14.0","win","051121","07:07:14","79","680045565","minuteDiscounting","1","choice","1","5","10","1","1","16","8","3 weeks","now","22799","Not yet determined","Not yet determined"
"5.0.14.0","win","051121","07:07:14","79","680045565","minuteDiscounting","1","choice","2","5","10","2","2","8","4","1 day","delayed","17933","Not yet determined","Not yet determined"
"5.0.14.0","win","051121","07:07:14","79","680045565","minuteDiscounting","1","choice","3","5","10","3","3","12","2","4 days","delayed","12441","Not yet determined","Not yet determined"
"5.0.14.0","win","051121","07:07:14","79","680045565","minuteDiscounting","1","choice","4","5","10","4","4","14","1","1.5 weeks","now","12968","Not yet determined","Not yet determined"
"5.0.14.0","win","051121","07:07:14","79","680045565","minuteDiscounting","1","choice","5","5","10","5","5","13","0.5","1 week","now","8999","5.292","0.189"
"5.0.14.0","win","051121","09:56:45","58","270202353","minuteDiscounting","1","choice","1","5","10","1","1","16","8","3 weeks","now","768981","Not yet determined","Not yet determined"
"5.0.14.0","win","051121","09:56:45","58","270202353","minuteDiscounting","1","choice","2","5","10","2","2","8","4","1 day","now","647","Not yet determined","Not yet determined"
"5.0.14.0","win","051121","09:56:45","58","270202353","minuteDiscounting","1","choice","3","5","10","3","3","4","2","4hr","now","421","Not yet determined","Not yet determined"
"5.0.14.0","win","051121","09:56:45","58","270202353","minuteDiscounting","1","choice","4","5","10","4","4","2","1","2hr","delayed","468","Not yet determined","Not yet determined"
"5.0.14.0","win","051121","09:56:45","58","270202353","minuteDiscounting","1","choice","5","5","10","5","5","3","0.5","3hr","now","799","0.1021","9.79"
"5.0.14.0","win","051121","09:09:55","104","247056292","minuteDiscounting","1","choice","1","5","10","1","1","16","8","3 weeks","delayed","19992","Not yet determined","Not yet determined"
"5.0.14.0","win","051121","09:09:55","104","247056292","minuteDiscounting","1","choice","2","5","10","2","2","24","4","2 years","now","5056","Not yet determined","Not yet determined"
"5.0.14.0","win","051121","09:09:55","104","247056292","minuteDiscounting","1","choice","3","5","10","3","3","20","2","4 months","delayed","3632","Not yet determined","Not yet determined"
"5.0.14.0","win","051121","09:09:55","104","247056292","minuteDiscounting","1","choice","4","5","10","4","4","22","1","8 months","now","6263","Not yet determined","Not yet determined"
"5.0.14.0","win","051121","09:09:55","104","247056292","minuteDiscounting","1","choice","5","5","10","5","5","21","0.5","6 months","now","2225","149.1","0.00671"
"5.0.14.0","win","051121","09:08:43","99","811246138","minuteDiscounting","1","choice","1","5","10","1","1","16","8","3 weeks","delayed","40187","Not yet determined","Not yet determined"
"5.0.14.0","win","051121","09:08:43","99","811246138","minuteDiscounting","1","choice","2","5","10","2","2","24","4","2 years","now","30891","Not yet determined","Not yet determined"
"5.0.14.0","win","051121","09:08:43","99","811246138","minuteDiscounting","1","choice","3","5","10","3","3","20","2","4 months","now","23289","Not yet determined","Not yet determined"
"5.0.14.0","win","051121","09:08:43","99","811246138","minuteDiscounting","1","choice","4","5","10","4","4","18","1","2 months","now","12733","Not yet determined","Not yet determined"
"5.0.14.0","win","051121","09:08:43","99","811246138","minuteDiscounting","1","choice","5","5","10","5","5","17","0.5","1 month","now","27314","25.28","0.0396"
"5.0.14.0","win","051121","10:13:14","110","163974413","minuteDiscounting","1","choice","1","5","10","1","1","16","8","3 weeks","now","19169","Not yet determined","Not yet determined"
"5.0.14.0","win","051121","10:13:14","110","163974413","minuteDiscounting","1","choice","2","5","10","2","2","8","4","1 day","now","768","Not yet determined","Not yet determined"
"5.0.14.0","win","051121","10:13:14","110","163974413","minuteDiscounting","1","choice","3","5","10","3","3","4","2","4hr","now","472","Not yet determined","Not yet determined"
"5.0.14.0","win","051121","10:13:14","110","163974413","minuteDiscounting","1","choice","4","5","10","4","4","2","1","2hr","now","712","Not yet determined","Not yet determined"
"5.0.14.0","win","051121","10:13:14","110","163974413","minuteDiscounting","1","choice","5","5","10","5","5","1","0.5","1hr","now","1090","0.04167","24"
"5.0.14.0","win","051121","10:13:48","132","916221930","minuteDiscounting","1","choice","1","5","10","1","1","16","8","3 weeks","now","2028","Not yet determined","Not yet determined"
"5.0.14.0","win","051121","10:13:48","132","916221930","minuteDiscounting","1","choice","2","5","10","2","2","8","4","1 day","now","471","Not yet determined","Not yet determined"
"5.0.14.0","win","051121","10:13:48","132","916221930","minuteDiscounting","1","choice","3","5","10","3","3","4","2","4hr","now","814","Not yet determined","Not yet determined"
"5.0.14.0","win","051121","10:13:48","132","916221930","minuteDiscounting","1","choice","4","5","10","4","4","2","1","2hr","now","527","Not yet determined","Not yet determined"
"5.0.14.0","win","051121","10:13:48","132","916221930","minuteDiscounting","1","choice","5","5","10","5","5","1","0.5","1hr","now","654","0.04167","24"
"5.0.14.0","win","050521","04:14:32","128","440792769","minuteDiscounting","1","choice","1","5","10","1","1","16","8","3 weeks","delayed","737","Not yet determined","Not yet determined"
"5.0.14.0","win","050521","04:14:32","128","440792769","minuteDiscounting","1","choice","2","5","10","2","2","24","4","2 years","delayed","1175","Not yet determined","Not yet determined"
"5.0.14.0","win","050521","04:14:32","128","440792769","minuteDiscounting","1","choice","3","5","10","3","3","28","2","8 years","now","1193","Not yet determined","Not yet determined"
"5.0.14.0","win","050521","04:14:32","128","440792769","minuteDiscounting","1","choice","4","5","10","4","4","26","1","4 years","now","647","Not yet determined","Not yet determined"
"5.0.14.0","win","050521","04:14:32","128","440792769","minuteDiscounting","1","choice","5","5","10","5","5","25","0.5","3 years","now","1190","894.7","0.00112"
"5.0.14.0","win","051121","07:14:37","119","5601420","minuteDiscounting","1","choice","1","5","10","1","1","16","8","3 weeks","now","20868","Not yet determined","Not yet determined"
"5.0.14.0","win","051121","07:14:37","119","5601420","minuteDiscounting","1","choice","2","5","10","2","2","8","4","1 day","now","1004","Not yet determined","Not yet determined"
"5.0.14.0","win","051121","07:14:37","119","5601420","minuteDiscounting","1","choice","3","5","10","3","3","4","2","4hr","now","2446","Not yet determined","Not yet determined"
"5.0.14.0","win","051121","07:14:37","119","5601420","minuteDiscounting","1","choice","4","5","10","4","4","2","1","2hr","now","2008","Not yet determined","Not yet determined"
"5.0.14.0","win","051121","07:14:37","119","5601420","minuteDiscounting","1","choice","5","5","10","5","5","1","0.5","1hr","now","937","0.04167","24"
"5.0.14.0","win","051121","10:14:41","133","751679784","minuteDiscounting","1","choice","1","5","10","1","1","16","8","3 weeks","now","33241","Not yet determined","Not yet determined"
"5.0.14.0","win","051121","10:14:41","133","751679784","minuteDiscounting","1","choice","2","5","10","2","2","8","4","1 day","now","915","Not yet determined","Not yet determined"
"5.0.14.0","win","051121","10:14:41","133","751679784","minuteDiscounting","1","choice","3","5","10","3","3","4","2","4hr","now","623","Not yet determined","Not yet determined"
"5.0.14.0","win","051121","10:14:41","133","751679784","minuteDiscounting","1","choice","4","5","10","4","4","2","1","2hr","now","451","Not yet determined","Not yet determined"
"5.0.14.0","win","051121","10:14:41","133","751679784","minuteDiscounting","1","choice","5","5","10","5","5","1","0.5","1hr","now","778","0.04167","24"
"5.0.14.0","win","051121","10:14:53","129","958173294","minuteDiscounting","1","choice","1","5","10","1","1","16","8","3 weeks","now","8472","Not yet determined","Not yet determined"
"5.0.14.0","win","051121","10:14:53","129","958173294","minuteDiscounting","1","choice","2","5","10","2","2","8","4","1 day","now","1175","Not yet determined","Not yet determined"
"5.0.14.0","win","051121","10:14:53","129","958173294","minuteDiscounting","1","choice","3","5","10","3","3","4","2","4hr","now","546","Not yet determined","Not yet determined"
"5.0.14.0","win","051121","10:14:53","129","958173294","minuteDiscounting","1","choice","4","5","10","4","4","2","1","2hr","now","673","Not yet determined","Not yet determined"
"5.0.14.0","win","051121","10:14:53","129","958173294","minuteDiscounting","1","choice","5","5","10","5","5","1","0.5","1hr","now","446","0.04167","24"
"5.0.14.0","win","051121","10:18:04","145","740515121","minuteDiscounting","1","choice","1","5","10","1","1","16","8","3 weeks","now","2391","Not yet determined","Not yet determined"
"5.0.14.0","win","051121","10:18:04","145","740515121","minuteDiscounting","1","choice","2","5","10","2","2","8","4","1 day","now","945","Not yet determined","Not yet determined"
"5.0.14.0","win","051121","10:18:04","145","740515121","minuteDiscounting","1","choice","3","5","10","3","3","4","2","4hr","now","767","Not yet determined","Not yet determined"
"5.0.14.0","win","051121","10:18:04","145","740515121","minuteDiscounting","1","choice","4","5","10","4","4","2","1","2hr","now","2290","Not yet determined","Not yet determined"
"5.0.14.0","win","051121","10:18:04","145","740515121","minuteDiscounting","1","choice","5","5","10","5","5","1","0.5","1hr","now","722","0.04167","24"
"5.0.14.0","win","051121","10:18:26","142","248285519","minuteDiscounting","1","choice","1","5","10","1","1","16","8","3 weeks","now","28407","Not yet determined","Not yet determined"
"5.0.14.0","win","051121","10:18:26","142","248285519","minuteDiscounting","1","choice","2","5","10","2","2","8","4","1 day","now","1160","Not yet determined","Not yet determined"
"5.0.14.0","win","051121","10:18:26","142","248285519","minuteDiscounting","1","choice","3","5","10","3","3","4","2","4hr","now","877","Not yet determined","Not yet determined"
"5.0.14.0","win","051121","10:18:26","142","248285519","minuteDiscounting","1","choice","4","5","10","4","4","2","1","2hr","now","827","Not yet determined","Not yet determined"
"5.0.14.0","win","051121","10:18:26","142","248285519","minuteDiscounting","1","choice","5","5","10","5","5","1","0.5","1hr","now","517","0.04167","24"
"5.0.14.0","win","051121","10:18:55","126","665189049","minuteDiscounting","1","choice","1","5","10","1","1","16","8","3 weeks","now","34628","Not yet determined","Not yet determined"
"5.0.14.0","win","051121","10:18:55","126","665189049","minuteDiscounting","1","choice","2","5","10","2","2","8","4","1 day","now","837","Not yet determined","Not yet determined"
"5.0.14.0","win","051121","10:18:55","126","665189049","minuteDiscounting","1","choice","3","5","10","3","3","4","2","4hr","now","471","Not yet determined","Not yet determined"
"5.0.14.0","win","051121","10:18:55","126","665189049","minuteDiscounting","1","choice","4","5","10","4","4","2","1","2hr","now","476","Not yet determined","Not yet determined"
"5.0.14.0","win","051121","10:18:55","126","665189049","minuteDiscounting","1","choice","5","5","10","5","5","1","0.5","1hr","delayed","303","0.05893","17"
"5.0.14.0","win","051121","09:20:37","150","742347810","minuteDiscounting","1","choice","1","5","10","1","1","16","8","3 weeks","delayed","9989","Not yet determined","Not yet determined"
"5.0.14.0","win","051121","09:20:37","150","742347810","minuteDiscounting","1","choice","2","5","10","2","2","24","4","2 years","now","2775","Not yet determined","Not yet determined"
"5.0.14.0","win","051121","09:20:37","150","742347810","minuteDiscounting","1","choice","3","5","10","3","3","20","2","4 months","now","3636","Not yet determined","Not yet determined"
"5.0.14.0","win","051121","09:20:37","150","742347810","minuteDiscounting","1","choice","4","5","10","4","4","18","1","2 months","now","1885","Not yet determined","Not yet determined"
"5.0.14.0","win","051121","09:20:37","150","742347810","minuteDiscounting","1","choice","5","5","10","5","5","17","0.5","1 month","now","908","25.28","0.0396"
"5.0.14.0","win","051121","15:20:12","140","233933346","minuteDiscounting","1","choice","1","5","10","1","1","16","8","3 weeks","delayed","7976","Not yet determined","Not yet determined"
"5.0.14.0","win","051121","15:20:12","140","233933346","minuteDiscounting","1","choice","2","5","10","2","2","24","4","2 years","delayed","1334","Not yet determined","Not yet determined"
"5.0.14.0","win","051121","15:20:12","140","233933346","minuteDiscounting","1","choice","3","5","10","3","3","28","2","8 years","delayed","1968","Not yet determined","Not yet determined"
"5.0.14.0","win","051121","15:20:12","140","233933346","minuteDiscounting","1","choice","4","5","10","4","4","30","1","18 years","delayed","1754","Not yet determined","Not yet determined"
"5.0.14.0","win","051121","15:20:12","140","233933346","minuteDiscounting","1","choice","5","5","10","5","5","31","0.5","25 years","delayed","1509","9131","0.00011"
"5.0.14.0","win","051121","10:20:40","131","889420221","minuteDiscounting","1","choice","1","5","10","1","1","16","8","3 weeks","now","17907","Not yet determined","Not yet determined"
"5.0.14.0","win","051121","10:20:40","131","889420221","minuteDiscounting","1","choice","2","5","10","2","2","8","4","1 day","now","2999","Not yet determined","Not yet determined"
"5.0.14.0","win","051121","10:20:40","131","889420221","minuteDiscounting","1","choice","3","5","10","3","3","4","2","4hr","now","1312","Not yet determined","Not yet determined"
"5.0.14.0","win","051121","10:20:40","131","889420221","minuteDiscounting","1","choice","4","5","10","4","4","2","1","2hr","now","1042","Not yet determined","Not yet determined"
"5.0.14.0","win","051121","10:20:40","131","889420221","minuteDiscounting","1","choice","5","5","10","5","5","1","0.5","1hr","now","706","0.04167","24"
"5.0.14.0","win","051121","07:22:01","152","131549396","minuteDiscounting","1","choice","1","5","10","1","1","16","8","3 weeks","now","16447","Not yet determined","Not yet determined"
"5.0.14.0","win","051121","07:22:01","152","131549396","minuteDiscounting","1","choice","2","5","10","2","2","8","4","1 day","now","962","Not yet determined","Not yet determined"
"5.0.14.0","win","051121","07:22:01","152","131549396","minuteDiscounting","1","choice","3","5","10","3","3","4","2","4hr","now","1157","Not yet determined","Not yet determined"
"5.0.14.0","win","051121","07:22:01","152","131549396","minuteDiscounting","1","choice","4","5","10","4","4","2","1","2hr","now","1001","Not yet determined","Not yet determined"
"5.0.14.0","win","051121","07:22:01","152","131549396","minuteDiscounting","1","choice","5","5","10","5","5","1","0.5","1hr","now","769","0.04167","24"
"5.0.14.0","win","051121","10:22:14","148","56786654","minuteDiscounting","1","choice","1","5","10","1","1","16","8","3 weeks","now","2990","Not yet determined","Not yet determined"
"5.0.14.0","win","051121","10:22:14","148","56786654","minuteDiscounting","1","choice","2","5","10","2","2","8","4","1 day","now","808","Not yet determined","Not yet determined"
"5.0.14.0","win","051121","10:22:14","148","56786654","minuteDiscounting","1","choice","3","5","10","3","3","4","2","4hr","now","1080","Not yet determined","Not yet determined"
"5.0.14.0","win","051121","10:22:14","148","56786654","minuteDiscounting","1","choice","4","5","10","4","4","2","1","2hr","now","550","Not yet determined","Not yet determined"
"5.0.14.0","win","051121","10:22:14","148","56786654","minuteDiscounting","1","choice","5","5","10","5","5","1","0.5","1hr","now","958","0.04167","24"
"5.0.14.0","win","051121","10:22:36","147","382769186","minuteDiscounting","1","choice","1","5","10","1","1","16","8","3 weeks","now","9588","Not yet determined","Not yet determined"
"5.0.14.0","win","051121","10:22:36","147","382769186","minuteDiscounting","1","choice","2","5","10","2","2","8","4","1 day","now","1003","Not yet determined","Not yet determined"
"5.0.14.0","win","051121","10:22:36","147","382769186","minuteDiscounting","1","choice","3","5","10","3","3","4","2","4hr","now","6244","Not yet determined","Not yet determined"
"5.0.14.0","win","051121","10:22:36","147","382769186","minuteDiscounting","1","choice","4","5","10","4","4","2","1","2hr","now","529","Not yet determined","Not yet determined"
"5.0.14.0","win","051121","10:22:36","147","382769186","minuteDiscounting","1","choice","5","5","10","5","5","1","0.5","1hr","now","561","0.04167","24"
"5.0.14.0","win","050521","03:10:35","157","277070736","minuteDiscounting","1","choice","1","5","10","1","1","16","8","3 weeks","delayed","1199","Not yet determined","Not yet determined"
"5.0.14.0","win","050521","03:10:35","157","277070736","minuteDiscounting","1","choice","2","5","10","2","2","24","4","2 years","delayed","12096","Not yet determined","Not yet determined"
"5.0.14.0","win","050521","03:10:35","157","277070736","minuteDiscounting","1","choice","3","5","10","3","3","28","2","8 years","now","182","Not yet determined","Not yet determined"
"5.0.14.0","win","050521","03:10:35","157","277070736","minuteDiscounting","1","choice","4","5","10","4","4","26","1","4 years","now","226","Not yet determined","Not yet determined"
"5.0.14.0","win","050521","03:10:35","157","277070736","minuteDiscounting","1","choice","5","5","10","5","5","25","0.5","3 years","now","123","894.7","0.00112"
"5.0.14.0","win","051121","10:25:15","156","628988970","minuteDiscounting","1","choice","1","5","10","1","1","16","8","3 weeks","now","2176","Not yet determined","Not yet determined"
"5.0.14.0","win","051121","10:25:15","156","628988970","minuteDiscounting","1","choice","2","5","10","2","2","8","4","1 day","now","1160","Not yet determined","Not yet determined"
"5.0.14.0","win","051121","10:25:15","156","628988970","minuteDiscounting","1","choice","3","5","10","3","3","4","2","4hr","now","469","Not yet determined","Not yet determined"
"5.0.14.0","win","051121","10:25:15","156","628988970","minuteDiscounting","1","choice","4","5","10","4","4","2","1","2hr","now","2072","Not yet determined","Not yet determined"
"5.0.14.0","win","051121","10:25:15","156","628988970","minuteDiscounting","1","choice","5","5","10","5","5","1","0.5","1hr","now","712","0.04167","24"
"5.0.14.0","win","051121","07:26:00","159","447879181","minuteDiscounting","1","choice","1","5","10","1","1","16","8","3 weeks","now","1102","Not yet determined","Not yet determined"
"5.0.14.0","win","051121","07:26:00","159","447879181","minuteDiscounting","1","choice","2","5","10","2","2","8","4","1 day","now","800","Not yet determined","Not yet determined"
"5.0.14.0","win","051121","07:26:00","159","447879181","minuteDiscounting","1","choice","3","5","10","3","3","4","2","4hr","now","682","Not yet determined","Not yet determined"
"5.0.14.0","win","051121","07:26:00","159","447879181","minuteDiscounting","1","choice","4","5","10","4","4","2","1","2hr","now","2697","Not yet determined","Not yet determined"
"5.0.14.0","win","051121","07:26:00","159","447879181","minuteDiscounting","1","choice","5","5","10","5","5","1","0.5","1hr","now","1091","0.04167","24"
"5.0.14.0","win","051121","10:27:16","162","952080308","minuteDiscounting","1","choice","1","5","10","1","1","16","8","3 weeks","delayed","20160","Not yet determined","Not yet determined"
"5.0.14.0","win","051121","10:27:16","162","952080308","minuteDiscounting","1","choice","2","5","10","2","2","24","4","2 years","now","2968","Not yet determined","Not yet determined"
"5.0.14.0","win","051121","10:27:16","162","952080308","minuteDiscounting","1","choice","3","5","10","3","3","20","2","4 months","now","2589","Not yet determined","Not yet determined"
"5.0.14.0","win","051121","10:27:16","162","952080308","minuteDiscounting","1","choice","4","5","10","4","4","18","1","2 months","now","528","Not yet determined","Not yet determined"
"5.0.14.0","win","051121","10:27:16","162","952080308","minuteDiscounting","1","choice","5","5","10","5","5","17","0.5","1 month","now","870","25.28","0.0396"
"5.0.14.0","win","051121","09:30:24","167","346991545","minuteDiscounting","1","choice","1","5","10","1","1","16","8","3 weeks","now","1833","Not yet determined","Not yet determined"
"5.0.14.0","win","051121","09:30:24","167","346991545","minuteDiscounting","1","choice","2","5","10","2","2","8","4","1 day","now","939","Not yet determined","Not yet determined"
"5.0.14.0","win","051121","09:30:24","167","346991545","minuteDiscounting","1","choice","3","5","10","3","3","4","2","4hr","now","1227","Not yet determined","Not yet determined"
"5.0.14.0","win","051121","09:30:24","167","346991545","minuteDiscounting","1","choice","4","5","10","4","4","2","1","2hr","now","392","Not yet determined","Not yet determined"
"5.0.14.0","win","051121","09:30:24","167","346991545","minuteDiscounting","1","choice","5","5","10","5","5","1","0.5","1hr","now","860","0.04167","24"
"5.0.14.0","win","051121","10:30:44","170","118210985","minuteDiscounting","1","choice","1","5","10","1","1","16","8","3 weeks","now","22728","Not yet determined","Not yet determined"
"5.0.14.0","win","051121","10:30:44","170","118210985","minuteDiscounting","1","choice","2","5","10","2","2","8","4","1 day","delayed","20906","Not yet determined","Not yet determined"
"5.0.14.0","win","051121","10:30:44","170","118210985","minuteDiscounting","1","choice","3","5","10","3","3","12","2","4 days","now","18393","Not yet determined","Not yet determined"
"5.0.14.0","win","051121","10:30:44","170","118210985","minuteDiscounting","1","choice","4","5","10","4","4","10","1","2 days","now","1564","Not yet determined","Not yet determined"
"5.0.14.0","win","051121","10:30:44","170","118210985","minuteDiscounting","1","choice","5","5","10","5","5","9","0.5","1.5 days","now","731","1.225","0.816"
"5.0.14.0","win","051121","07:30:29","163","894702402","minuteDiscounting","1","choice","1","5","10","1","1","16","8","3 weeks","delayed","22135","Not yet determined","Not yet determined"
"5.0.14.0","win","051121","07:30:29","163","894702402","minuteDiscounting","1","choice","2","5","10","2","2","24","4","2 years","delayed","3934","Not yet determined","Not yet determined"
"5.0.14.0","win","051121","07:30:29","163","894702402","minuteDiscounting","1","choice","3","5","10","3","3","28","2","8 years","delayed","2066","Not yet determined","Not yet determined"
"5.0.14.0","win","051121","07:30:29","163","894702402","minuteDiscounting","1","choice","4","5","10","4","4","30","1","18 years","delayed","3059","Not yet determined","Not yet determined"
"5.0.14.0","win","051121","07:30:29","163","894702402","minuteDiscounting","1","choice","5","5","10","5","5","31","0.5","25 years","delayed","4248","9131","0.00011"
"5.0.14.0","win","051121","10:33:53","165","427582539","minuteDiscounting","1","choice","1","5","10","1","1","16","8","3 weeks","now","1272","Not yet determined","Not yet determined"
"5.0.14.0","win","051121","10:33:53","165","427582539","minuteDiscounting","1","choice","2","5","10","2","2","8","4","1 day","now","786","Not yet determined","Not yet determined"
"5.0.14.0","win","051121","10:33:53","165","427582539","minuteDiscounting","1","choice","3","5","10","3","3","4","2","4hr","now","977","Not yet determined","Not yet determined"
"5.0.14.0","win","051121","10:33:53","165","427582539","minuteDiscounting","1","choice","4","5","10","4","4","2","1","2hr","now","691","Not yet determined","Not yet determined"
"5.0.14.0","win","051121","10:33:53","165","427582539","minuteDiscounting","1","choice","5","5","10","5","5","1","0.5","1hr","now","873","0.04167","24"
"5.0.14.0","win","051121","07:36:05","178","444738424","minuteDiscounting","1","choice","1","5","10","1","1","16","8","3 weeks","now","3214","Not yet determined","Not yet determined"
"5.0.14.0","win","051121","07:36:05","178","444738424","minuteDiscounting","1","choice","2","5","10","2","2","8","4","1 day","now","858","Not yet determined","Not yet determined"
"5.0.14.0","win","051121","07:36:05","178","444738424","minuteDiscounting","1","choice","3","5","10","3","3","4","2","4hr","now","567","Not yet determined","Not yet determined"
"5.0.14.0","win","051121","07:36:05","178","444738424","minuteDiscounting","1","choice","4","5","10","4","4","2","1","2hr","now","572","Not yet determined","Not yet determined"
"5.0.14.0","win","051121","07:36:05","178","444738424","minuteDiscounting","1","choice","5","5","10","5","5","1","0.5","1hr","now","797","0.04167","24"
"5.0.14.0","win","051121","10:37:01","175","536423669","minuteDiscounting","1","choice","1","5","10","1","1","16","8","3 weeks","now","3621","Not yet determined","Not yet determined"
"5.0.14.0","win","051121","10:37:01","175","536423669","minuteDiscounting","1","choice","2","5","10","2","2","8","4","1 day","now","391","Not yet determined","Not yet determined"
"5.0.14.0","win","051121","10:37:01","175","536423669","minuteDiscounting","1","choice","3","5","10","3","3","4","2","4hr","now","959","Not yet determined","Not yet determined"
"5.0.14.0","win","051121","10:37:01","175","536423669","minuteDiscounting","1","choice","4","5","10","4","4","2","1","2hr","now","752","Not yet determined","Not yet determined"
"5.0.14.0","win","051121","10:37:01","175","536423669","minuteDiscounting","1","choice","5","5","10","5","5","1","0.5","1hr","now","704","0.04167","24"
"5.0.14.0","win","051121","10:38:04","186","835121960","minuteDiscounting","1","choice","1","5","10","1","1","16","8","3 weeks","now","1913","Not yet determined","Not yet determined"
"5.0.14.0","win","051121","10:38:04","186","835121960","minuteDiscounting","1","choice","2","5","10","2","2","8","4","1 day","now","433","Not yet determined","Not yet determined"
"5.0.14.0","win","051121","10:38:04","186","835121960","minuteDiscounting","1","choice","3","5","10","3","3","4","2","4hr","now","986","Not yet determined","Not yet determined"
"5.0.14.0","win","051121","10:38:04","186","835121960","minuteDiscounting","1","choice","4","5","10","4","4","2","1","2hr","now","1376","Not yet determined","Not yet determined"
"5.0.14.0","win","051121","10:38:04","186","835121960","minuteDiscounting","1","choice","5","5","10","5","5","1","0.5","1hr","now","1049","0.04167","24"
"5.0.14.0","win","051121","10:39:17","185","297189000","minuteDiscounting","1","choice","1","5","10","1","1","16","8","3 weeks","delayed","1908","Not yet determined","Not yet determined"
"5.0.14.0","win","051121","10:39:17","185","297189000","minuteDiscounting","1","choice","2","5","10","2","2","24","4","2 years","now","1253","Not yet determined","Not yet determined"
"5.0.14.0","win","051121","10:39:17","185","297189000","minuteDiscounting","1","choice","3","5","10","3","3","20","2","4 months","now","388","Not yet determined","Not yet determined"
"5.0.14.0","win","051121","10:39:17","185","297189000","minuteDiscounting","1","choice","4","5","10","4","4","18","1","2 months","now","685","Not yet determined","Not yet determined"
"5.0.14.0","win","051121","10:39:17","185","297189000","minuteDiscounting","1","choice","5","5","10","5","5","17","0.5","1 month","now","636","25.28","0.0396"
"5.0.14.0","win","051121","10:39:39","173","558507562","minuteDiscounting","1","choice","1","5","10","1","1","16","8","3 weeks","now","2543","Not yet determined","Not yet determined"
"5.0.14.0","win","051121","10:39:39","173","558507562","minuteDiscounting","1","choice","2","5","10","2","2","8","4","1 day","now","909","Not yet determined","Not yet determined"
"5.0.14.0","win","051121","10:39:39","173","558507562","minuteDiscounting","1","choice","3","5","10","3","3","4","2","4hr","now","762","Not yet determined","Not yet determined"
"5.0.14.0","win","051121","10:39:39","173","558507562","minuteDiscounting","1","choice","4","5","10","4","4","2","1","2hr","now","609","Not yet determined","Not yet determined"
"5.0.14.0","win","051121","10:39:39","173","558507562","minuteDiscounting","1","choice","5","5","10","5","5","1","0.5","1hr","now","737","0.04167","24"
"5.0.14.0","win","051121","09:30:36","166","392235791","minuteDiscounting","1","choice","1","5","10","1","1","16","8","3 weeks","delayed","618602","Not yet determined","Not yet determined"
"5.0.14.0","win","051121","09:30:36","166","392235791","minuteDiscounting","1","choice","2","5","10","2","2","24","4","2 years","delayed","4933","Not yet determined","Not yet determined"
"5.0.14.0","win","051121","09:30:36","166","392235791","minuteDiscounting","1","choice","3","5","10","3","3","28","2","8 years","delayed","1068","Not yet determined","Not yet determined"
"5.0.14.0","win","051121","09:30:36","166","392235791","minuteDiscounting","1","choice","4","5","10","4","4","30","1","18 years","delayed","736","Not yet determined","Not yet determined"
"5.0.14.0","win","051121","09:30:36","166","392235791","minuteDiscounting","1","choice","5","5","10","5","5","31","0.5","25 years","delayed","858","9131","0.00011"
"5.0.14.0","win","051121","15:41:29","189","192776168","minuteDiscounting","1","choice","1","5","10","1","1","16","8","3 weeks","now","6257","Not yet determined","Not yet determined"
"5.0.14.0","win","051121","15:41:29","189","192776168","minuteDiscounting","1","choice","2","5","10","2","2","8","4","1 day","now","590","Not yet determined","Not yet determined"
"5.0.14.0","win","051121","15:41:29","189","192776168","minuteDiscounting","1","choice","3","5","10","3","3","4","2","4hr","now","1205","Not yet determined","Not yet determined"
"5.0.14.0","win","051121","15:41:29","189","192776168","minuteDiscounting","1","choice","4","5","10","4","4","2","1","2hr","now","546","Not yet determined","Not yet determined"
"5.0.14.0","win","051121","15:41:29","189","192776168","minuteDiscounting","1","choice","5","5","10","5","5","1","0.5","1hr","now","1177","0.04167","24"
"5.0.14.0","win","051121","10:42:17","188","620796170","minuteDiscounting","1","choice","1","5","10","1","1","16","8","3 weeks","delayed","5961","Not yet determined","Not yet determined"
"5.0.14.0","win","051121","10:42:17","188","620796170","minuteDiscounting","1","choice","2","5","10","2","2","24","4","2 years","now","1929","Not yet determined","Not yet determined"
"5.0.14.0","win","051121","10:42:17","188","620796170","minuteDiscounting","1","choice","3","5","10","3","3","20","2","4 months","now","18552","Not yet determined","Not yet determined"
"5.0.14.0","win","051121","10:42:17","188","620796170","minuteDiscounting","1","choice","4","5","10","4","4","18","1","2 months","delayed","29999","Not yet determined","Not yet determined"
"5.0.14.0","win","051121","10:42:17","188","620796170","minuteDiscounting","1","choice","5","5","10","5","5","19","0.5","3 months","delayed","4316","105.4","0.00949"
"5.0.14.0","win","051121","15:42:11","193","319817236","minuteDiscounting","1","choice","1","5","10","1","1","16","8","3 weeks","now","6311","Not yet determined","Not yet determined"
"5.0.14.0","win","051121","15:42:11","193","319817236","minuteDiscounting","1","choice","2","5","10","2","2","8","4","1 day","now","4242","Not yet determined","Not yet determined"
"5.0.14.0","win","051121","15:42:11","193","319817236","minuteDiscounting","1","choice","3","5","10","3","3","4","2","4hr","now","1994","Not yet determined","Not yet determined"
"5.0.14.0","win","051121","15:42:11","193","319817236","minuteDiscounting","1","choice","4","5","10","4","4","2","1","2hr","now","957","Not yet determined","Not yet determined"
"5.0.14.0","win","051121","15:42:11","193","319817236","minuteDiscounting","1","choice","5","5","10","5","5","1","0.5","1hr","now","109023","0.04167","24"
"5.0.14.0","win","051121","15:41:55","187","869220298","minuteDiscounting","1","choice","1","5","10","1","1","16","8","3 weeks","delayed","10670","Not yet determined","Not yet determined"
"5.0.14.0","win","051121","15:41:55","187","869220298","minuteDiscounting","1","choice","2","5","10","2","2","24","4","2 years","delayed","1521","Not yet determined","Not yet determined"
"5.0.14.0","win","051121","15:41:55","187","869220298","minuteDiscounting","1","choice","3","5","10","3","3","28","2","8 years","delayed","2016","Not yet determined","Not yet determined"
"5.0.14.0","win","051121","15:41:55","187","869220298","minuteDiscounting","1","choice","4","5","10","4","4","30","1","18 years","delayed","1626","Not yet determined","Not yet determined"
"5.0.14.0","win","051121","15:41:55","187","869220298","minuteDiscounting","1","choice","5","5","10","5","5","31","0.5","25 years","delayed","10593","9131","0.00011"
"5.0.14.0","win","050521","04:14:53","199","832675749","minuteDiscounting","1","choice","1","5","10","1","1","16","8","3 weeks","now","1725","Not yet determined","Not yet determined"
"5.0.14.0","win","050521","04:14:53","199","832675749","minuteDiscounting","1","choice","2","5","10","2","2","8","4","1 day","now","87","Not yet determined","Not yet determined"
"5.0.14.0","win","050521","04:14:53","199","832675749","minuteDiscounting","1","choice","3","5","10","3","3","4","2","4hr","now","9","Not yet determined","Not yet determined"
"5.0.14.0","win","050521","04:14:53","199","832675749","minuteDiscounting","1","choice","4","5","10","4","4","2","1","2hr","delayed","137","Not yet determined","Not yet determined"
"5.0.14.0","win","050521","04:14:53","199","832675749","minuteDiscounting","1","choice","5","5","10","5","5","3","0.5","3hr","delayed","119","0.1444","6.93"
"5.0.14.0","win","051121","10:44:39","200","5028002","minuteDiscounting","1","choice","1","5","10","1","1","16","8","3 weeks","now","1160","Not yet determined","Not yet determined"
"5.0.14.0","win","051121","10:44:39","200","5028002","minuteDiscounting","1","choice","2","5","10","2","2","8","4","1 day","now","657","Not yet determined","Not yet determined"
"5.0.14.0","win","051121","10:44:39","200","5028002","minuteDiscounting","1","choice","3","5","10","3","3","4","2","4hr","now","478","Not yet determined","Not yet determined"
"5.0.14.0","win","051121","10:44:39","200","5028002","minuteDiscounting","1","choice","4","5","10","4","4","2","1","2hr","now","489","Not yet determined","Not yet determined"
"5.0.14.0","win","051121","10:44:39","200","5028002","minuteDiscounting","1","choice","5","5","10","5","5","1","0.5","1hr","now","1010","0.04167","24"
"5.0.14.0","win","051121","10:46:14","196","69221329","minuteDiscounting","1","choice","1","5","10","1","1","16","8","3 weeks","delayed","1674","Not yet determined","Not yet determined"
"5.0.14.0","win","051121","10:46:14","196","69221329","minuteDiscounting","1","choice","2","5","10","2","2","24","4","2 years","now","723","Not yet determined","Not yet determined"
"5.0.14.0","win","051121","10:46:14","196","69221329","minuteDiscounting","1","choice","3","5","10","3","3","20","2","4 months","now","601","Not yet determined","Not yet determined"
"5.0.14.0","win","051121","10:46:14","196","69221329","minuteDiscounting","1","choice","4","5","10","4","4","18","1","2 months","now","553","Not yet determined","Not yet determined"
"5.0.14.0","win","051121","10:46:14","196","69221329","minuteDiscounting","1","choice","5","5","10","5","5","17","0.5","1 month","now","488","25.28","0.0396"
"5.0.14.0","win","051121","04:45:59","184","832289747","minuteDiscounting","1","choice","1","5","10","1","1","16","8","3 weeks","now","12716","Not yet determined","Not yet determined"
"5.0.14.0","win","051121","04:45:59","184","832289747","minuteDiscounting","1","choice","2","5","10","2","2","8","4","1 day","now","11770","Not yet determined","Not yet determined"
"5.0.14.0","win","051121","04:45:59","184","832289747","minuteDiscounting","1","choice","3","5","10","3","3","4","2","4hr","now","541","Not yet determined","Not yet determined"
"5.0.14.0","win","051121","04:45:59","184","832289747","minuteDiscounting","1","choice","4","5","10","4","4","2","1","2hr","now","1136","Not yet determined","Not yet determined"
"5.0.14.0","win","051121","04:45:59","184","832289747","minuteDiscounting","1","choice","5","5","10","5","5","1","0.5","1hr","now","457","0.04167","24"
"5.0.14.0","win","051121","10:47:52","197","48920917","minuteDiscounting","1","choice","1","5","10","1","1","16","8","3 weeks","now","6145","Not yet determined","Not yet determined"
"5.0.14.0","win","051121","10:47:52","197","48920917","minuteDiscounting","1","choice","2","5","10","2","2","8","4","1 day","now","1546","Not yet determined","Not yet determined"
"5.0.14.0","win","051121","10:47:52","197","48920917","minuteDiscounting","1","choice","3","5","10","3","3","4","2","4hr","now","982","Not yet determined","Not yet determined"
"5.0.14.0","win","051121","10:47:52","197","48920917","minuteDiscounting","1","choice","4","5","10","4","4","2","1","2hr","now","622","Not yet determined","Not yet determined"
"5.0.14.0","win","051121","10:47:52","197","48920917","minuteDiscounting","1","choice","5","5","10","5","5","1","0.5","1hr","now","807","0.04167","24"
"5.0.14.0","win","051121","10:48:35","209","850693203","minuteDiscounting","1","choice","1","5","10","1","1","16","8","3 weeks","delayed","4671","Not yet determined","Not yet determined"
"5.0.14.0","win","051121","10:48:35","209","850693203","minuteDiscounting","1","choice","2","5","10","2","2","24","4","2 years","now","1847","Not yet determined","Not yet determined"
"5.0.14.0","win","051121","10:48:35","209","850693203","minuteDiscounting","1","choice","3","5","10","3","3","20","2","4 months","now","2289","Not yet determined","Not yet determined"
"5.0.14.0","win","051121","10:48:35","209","850693203","minuteDiscounting","1","choice","4","5","10","4","4","18","1","2 months","delayed","1535","Not yet determined","Not yet determined"
"5.0.14.0","win","051121","10:48:35","209","850693203","minuteDiscounting","1","choice","5","5","10","5","5","19","0.5","3 months","now","1422","74.56","0.0134"
"5.0.14.0","win","051121","15:49:37","204","935107238","minuteDiscounting","1","choice","1","5","10","1","1","16","8","3 weeks","now","2847","Not yet determined","Not yet determined"
"5.0.14.0","win","051121","15:49:37","204","935107238","minuteDiscounting","1","choice","2","5","10","2","2","8","4","1 day","now","515","Not yet determined","Not yet determined"
"5.0.14.0","win","051121","15:49:37","204","935107238","minuteDiscounting","1","choice","3","5","10","3","3","4","2","4hr","delayed","374","Not yet determined","Not yet determined"
"5.0.14.0","win","051121","15:49:37","204","935107238","minuteDiscounting","1","choice","4","5","10","4","4","6","1","9hr","now","1094","Not yet determined","Not yet determined"
"5.0.14.0","win","051121","15:49:37","204","935107238","minuteDiscounting","1","choice","5","5","10","5","5","5","0.5","6hr","now","974","0.2041","4.9"
"5.0.14.0","win","051121","07:50:07","208","610160911","minuteDiscounting","1","choice","1","5","10","1","1","16","8","3 weeks","now","1804","Not yet determined","Not yet determined"
"5.0.14.0","win","051121","07:50:07","208","610160911","minuteDiscounting","1","choice","2","5","10","2","2","8","4","1 day","now","5757","Not yet determined","Not yet determined"
"5.0.14.0","win","051121","07:50:07","208","610160911","minuteDiscounting","1","choice","3","5","10","3","3","4","2","4hr","now","1225","Not yet determined","Not yet determined"
"5.0.14.0","win","051121","07:50:07","208","610160911","minuteDiscounting","1","choice","4","5","10","4","4","2","1","2hr","now","905","Not yet determined","Not yet determined"
"5.0.14.0","win","051121","07:50:07","208","610160911","minuteDiscounting","1","choice","5","5","10","5","5","1","0.5","1hr","now","2010","0.04167","24"
"5.0.14.0","win","051121","09:43:47","220","360223186","minuteDiscounting","1","choice","1","5","10","1","1","16","8","3 weeks","now","976","Not yet determined","Not yet determined"
"5.0.14.0","win","051121","09:43:47","220","360223186","minuteDiscounting","1","choice","2","5","10","2","2","8","4","1 day","now","1038","Not yet determined","Not yet determined"
"5.0.14.0","win","051121","09:43:47","220","360223186","minuteDiscounting","1","choice","3","5","10","3","3","4","2","4hr","now","656","Not yet determined","Not yet determined"
"5.0.14.0","win","051121","09:43:47","220","360223186","minuteDiscounting","1","choice","4","5","10","4","4","2","1","2hr","now","760","Not yet determined","Not yet determined"
"5.0.14.0","win","051121","09:43:47","220","360223186","minuteDiscounting","1","choice","5","5","10","5","5","1","0.5","1hr","now","585","0.04167","24"
