date,time,group,script.subjectid,build,blocknum,trialnum,blockcode,trialcode,pretrialpause,posttrialpause,trialduration,trialtimeout,response,correct,latency,stimulusnumber1,stimulusitem1,stimulusonset1,stimulusnumber2,stimulusitem2,stimulusonset2,stimulusnumber3,stimulusitem3,stimulusonset3,stimulusnumber4,stimulusitem4,stimulusonset4,stimulusnumber5,stimulusitem5,stimulusonset5,stimulusnumber6,stimulusitem6,stimulusonset6
51121,12:29:15,141927376,42,5.0.14.0,1,1,start,base_q,0,500,0,0,NA_n,0,7272,1,regular beer (4.5% ABV),5,1,non-alcoholic beer (0.0% ABV),5,1,or,5,1,Click on the answer of your choice,5,1,Which option would you prefer right NOW?,5,0,0,0
51121,12:29:15,141927376,42,5.0.14.0,1,2,start,check_NA,0,500,0,0,NA_n,0,8231,1,You chose non-alcoholic beer.       Please confirm your choice by again clicking on your chosen option.,3,1,regular beer (4.5% ABV),3,1,non-alcoholic beer (0.0% ABV),3,1,or,3,1,Click on the answer of your choice,3,1,Which option would you prefer right NOW?,3
51121,12:29:15,141927376,42,5.0.14.0,1,3,start,trial_n,0,500,0,0,beer_n,0,11809,1,regular beer (4.5% ABV)       and £ 1,4,1,non-alcoholic beer (0.0% ABV),4,1,Click on the answer of your choice,4,1,or,4,1,Which option would you prefer right NOW?,4,1,regular beer (4.5% ABV),11814
51121,12:29:15,141927376,42,5.0.14.0,1,4,start,check_finalE,0,500,0,0,NA,1,17894,1,You chose non-alcoholic beer.       Please confirm your choice by again clicking on your chosen option.,3,1,regular beer (4.5% ABV),3,1,non-alcoholic beer (0.0% ABV)       and £ 1,3,1,or,3,1,Click on the answer of your choice,3,1,Which option would you prefer right NOW?,3
51121,6:36:33,285977513,50,5.0.14.0,1,1,start,base_q,0,500,0,0,NA_n,0,2651,1,regular beer (4.5% ABV),0,1,non-alcoholic beer (0.0% ABV),0,1,or,0,1,Click on the answer of your choice,0,1,Which option would you prefer right NOW?,0,0,0,0
51121,6:36:33,285977513,50,5.0.14.0,1,2,start,check_NA,0,500,0,0,NA_n,0,36,1,You chose non-alcoholic beer.       Please confirm your choice by again clicking on your chosen option.,0,1,regular beer (4.5% ABV),0,1,non-alcoholic beer (0.0% ABV),0,1,or,0,1,Click on the answer of your choice,0,1,Which option would you prefer right NOW?,0
51121,6:36:33,285977513,50,5.0.14.0,1,3,start,trial_n,0,500,0,0,NA_n,1,15,1,regular beer (4.5% ABV)       and £ 0.1,0,1,non-alcoholic beer (0.0% ABV),0,1,Click on the answer of your choice,0,1,or,0,1,Which option would you prefer right NOW?,0,1,regular beer (4.5% ABV),15
51121,6:36:33,285977513,50,5.0.14.0,1,4,start,trial_n,0,500,0,0,beer_n,0,1353,1,regular beer (4.5% ABV)       and £ 0.15,0,1,non-alcoholic beer (0.0% ABV),0,1,Click on the answer of your choice,0,1,or,0,1,Which option would you prefer right NOW?,0,1,regular beer (4.5% ABV),1353
51121,6:36:33,285977513,50,5.0.14.0,1,5,start,check_finalE,0,500,0,0,NA,1,326,1,You chose non-alcoholic beer.       Please confirm your choice by again clicking on your chosen option.,0,1,regular beer (4.5% ABV),0,1,non-alcoholic beer (0.0% ABV)       and £ 0.15,0,1,or,0,1,Click on the answer of your choice,0,1,Which option would you prefer right NOW?,0
51121,9:43:39,919575683,54,5.0.14.0,1,1,start,base_q,0,500,0,0,NA_n,0,11245,1,regular beer (4.5% ABV),1,1,non-alcoholic beer (0.0% ABV),1,1,or,1,1,Click on the answer of your choice,1,1,Which option would you prefer right NOW?,1,0,0,0
51121,9:43:39,919575683,54,5.0.14.0,1,2,start,check_NA,0,500,0,0,NA_n,0,12349,1,You chose non-alcoholic beer.       Please confirm your choice by again clicking on your chosen option.,0,1,regular beer (4.5% ABV),0,1,non-alcoholic beer (0.0% ABV),0,1,or,0,1,Click on the answer of your choice,0,1,Which option would you prefer right NOW?,0
51121,9:43:39,919575683,54,5.0.14.0,1,3,start,trial_n,0,500,0,0,NA_n,1,11902,1,regular beer (4.5% ABV)       and £ 0.2,0,1,non-alcoholic beer (0.0% ABV),0,1,Click on the answer of your choice,0,1,or,0,1,Which option would you prefer right NOW?,0,1,regular beer (4.5% ABV),11903
51121,9:43:39,919575683,54,5.0.14.0,1,4,start,trial_n,0,500,0,0,NA_n,1,9036,1,regular beer (4.5% ABV)       and £ 0.3,0,1,non-alcoholic beer (0.0% ABV),0,1,Click on the answer of your choice,0,1,or,0,1,Which option would you prefer right NOW?,0,1,regular beer (4.5% ABV),9036
51121,9:43:39,919575683,54,5.0.14.0,1,5,start,trial_n,0,500,0,0,NA_n,1,6669,1,regular beer (4.5% ABV)       and £ 0.8,0,1,non-alcoholic beer (0.0% ABV),0,1,Click on the answer of your choice,0,1,or,0,1,Which option would you prefer right NOW?,0,1,regular beer (4.5% ABV),6669
51121,9:43:39,919575683,54,5.0.14.0,1,6,start,trial_n,0,500,0,0,NA_n,1,7172,1,regular beer (4.5% ABV)       and £ 0.85,0,1,non-alcoholic beer (0.0% ABV),0,1,Click on the answer of your choice,0,1,or,0,1,Which option would you prefer right NOW?,0,1,regular beer (4.5% ABV),7172
51121,9:43:39,919575683,54,5.0.14.0,1,7,start,trial_n,0,500,0,0,NA_n,1,1910,1,regular beer (4.5% ABV)       and £ 1.85,0,1,non-alcoholic beer (0.0% ABV),0,1,Click on the answer of your choice,0,1,or,0,1,Which option would you prefer right NOW?,0,1,regular beer (4.5% ABV),1910
51121,9:43:39,919575683,54,5.0.14.0,1,8,start,trial_n,0,500,0,0,NA_n,1,936,1,regular beer (4.5% ABV)       and £ 1.95,0,1,non-alcoholic beer (0.0% ABV),0,1,Click on the answer of your choice,0,1,or,0,1,Which option would you prefer right NOW?,0,1,regular beer (4.5% ABV),936
51121,9:43:39,919575683,54,5.0.14.0,1,9,start,trial_n,0,500,0,0,NA_n,1,1413,1,regular beer (4.5% ABV)       and £ 2.95,0,1,non-alcoholic beer (0.0% ABV),0,1,Click on the answer of your choice,0,1,or,0,1,Which option would you prefer right NOW?,0,1,regular beer (4.5% ABV),1414
51121,9:43:39,919575683,54,5.0.14.0,1,10,start,trial_n,0,500,0,0,NA_n,1,1030,1,regular beer (4.5% ABV)       and £ 3.45,0,1,non-alcoholic beer (0.0% ABV),0,1,Click on the answer of your choice,0,1,or,0,1,Which option would you prefer right NOW?,0,1,regular beer (4.5% ABV),1030
51121,9:43:39,919575683,54,5.0.14.0,1,11,start,trial_n,0,500,0,0,NA_n,1,797,1,regular beer (4.5% ABV)       and £ 3.65,0,1,non-alcoholic beer (0.0% ABV),0,1,Click on the answer of your choice,0,1,or,0,1,Which option would you prefer right NOW?,0,1,regular beer (4.5% ABV),798
51121,9:43:39,919575683,54,5.0.14.0,1,12,start,trial_n,0,500,0,0,NA_n,1,766,1,regular beer (4.5% ABV)       and £ 3.7,0,1,non-alcoholic beer (0.0% ABV),0,1,Click on the answer of your choice,0,1,or,0,1,Which option would you prefer right NOW?,0,1,regular beer (4.5% ABV),766
51121,9:43:39,919575683,54,5.0.14.0,1,13,start,trial_n,0,500,0,0,NA_n,1,1106,1,regular beer (4.5% ABV)       and £ 3.8,0,1,non-alcoholic beer (0.0% ABV),0,1,Click on the answer of your choice,0,1,or,0,1,Which option would you prefer right NOW?,0,1,regular beer (4.5% ABV),1106
51121,9:43:39,919575683,54,5.0.14.0,1,14,start,trial_n,0,500,0,0,NA_n,1,5917,1,regular beer (4.5% ABV)       and £ 3.85,0,1,non-alcoholic beer (0.0% ABV),0,1,Click on the answer of your choice,0,1,or,0,1,Which option would you prefer right NOW?,0,1,regular beer (4.5% ABV),5918
51121,9:43:39,919575683,54,5.0.14.0,1,15,start,trial_n,0,500,0,0,NA_n,1,894,1,regular beer (4.5% ABV)       and £ 4.85,0,1,non-alcoholic beer (0.0% ABV),0,1,Click on the answer of your choice,0,1,or,0,1,Which option would you prefer right NOW?,0,1,regular beer (4.5% ABV),894
51121,9:43:39,919575683,54,5.0.14.0,1,16,start,trial_n,0,500,0,0,NA_n,1,814,1,regular beer (4.5% ABV)       and £ 5.05,0,1,non-alcoholic beer (0.0% ABV),0,1,Click on the answer of your choice,0,1,or,0,1,Which option would you prefer right NOW?,0,1,regular beer (4.5% ABV),814
51121,9:43:39,919575683,54,5.0.14.0,1,17,start,trial_n,0,500,0,0,NA_n,1,787,1,regular beer (4.5% ABV)       and £ 5.55,6,1,non-alcoholic beer (0.0% ABV),6,1,Click on the answer of your choice,6,1,or,6,1,Which option would you prefer right NOW?,6,1,regular beer (4.5% ABV),788
51121,9:43:39,919575683,54,5.0.14.0,1,18,start,trial_n,0,500,0,0,NA_n,1,1003,1,regular beer (4.5% ABV)       and £ 6.55,0,1,non-alcoholic beer (0.0% ABV),0,1,Click on the answer of your choice,0,1,or,0,1,Which option would you prefer right NOW?,0,1,regular beer (4.5% ABV),1003
51121,9:43:39,919575683,54,5.0.14.0,1,19,start,trial_n,0,500,0,0,NA_n,1,851,1,regular beer (4.5% ABV)       and £ 7.05,0,1,non-alcoholic beer (0.0% ABV),0,1,Click on the answer of your choice,0,1,or,0,1,Which option would you prefer right NOW?,0,1,regular beer (4.5% ABV),851
51121,9:43:39,919575683,54,5.0.14.0,1,20,start,trial_n,0,500,0,0,NA_n,1,532,1,regular beer (4.5% ABV)       and £ 7.25,0,1,non-alcoholic beer (0.0% ABV),0,1,Click on the answer of your choice,0,1,or,0,1,Which option would you prefer right NOW?,0,1,regular beer (4.5% ABV),533
51121,9:43:39,919575683,54,5.0.14.0,1,21,start,trial_n,0,500,0,0,NA_n,1,523,1,regular beer (4.5% ABV)       and £ 7.35,0,1,non-alcoholic beer (0.0% ABV),0,1,Click on the answer of your choice,0,1,or,0,1,Which option would you prefer right NOW?,0,1,regular beer (4.5% ABV),524
51121,9:43:39,919575683,54,5.0.14.0,1,22,start,trial_n,0,500,0,0,NA_n,1,683,1,regular beer (4.5% ABV)       and £ 7.4,0,1,non-alcoholic beer (0.0% ABV),0,1,Click on the answer of your choice,0,1,or,0,1,Which option would you prefer right NOW?,0,1,regular beer (4.5% ABV),684
51121,9:43:39,919575683,54,5.0.14.0,1,23,start,trial_n,0,500,0,0,NA_n,1,1228,1,regular beer (4.5% ABV)       and £ 7.5,0,1,non-alcoholic beer (0.0% ABV),0,1,Click on the answer of your choice,0,1,or,0,1,Which option would you prefer right NOW?,0,1,regular beer (4.5% ABV),1228
51121,9:43:39,919575683,54,5.0.14.0,1,24,start,trial_n,0,500,0,0,NA_n,1,7283,1,regular beer (4.5% ABV)       and £ 8.5,0,1,non-alcoholic beer (0.0% ABV),0,1,Click on the answer of your choice,0,1,or,0,1,Which option would you prefer right NOW?,0,1,regular beer (4.5% ABV),7283
51121,9:43:39,919575683,54,5.0.14.0,1,25,start,trial_n,0,500,0,0,NA_n,1,542,1,regular beer (4.5% ABV)       and £ 9,0,1,non-alcoholic beer (0.0% ABV),0,1,Click on the answer of your choice,0,1,or,0,1,Which option would you prefer right NOW?,0,1,regular beer (4.5% ABV),543
51121,9:43:39,919575683,54,5.0.14.0,1,26,start,trial_n,0,500,0,0,NA_n,1,1043,1,regular beer (4.5% ABV)       and £ 9.05,0,1,non-alcoholic beer (0.0% ABV),0,1,Click on the answer of your choice,0,1,or,0,1,Which option would you prefer right NOW?,0,1,regular beer (4.5% ABV),1044
51121,9:43:39,919575683,54,5.0.14.0,1,27,start,trial_n,0,500,0,0,NA_n,1,1027,1,regular beer (4.5% ABV)       and £ 9.25,0,1,non-alcoholic beer (0.0% ABV),0,1,Click on the answer of your choice,0,1,or,0,1,Which option would you prefer right NOW?,0,1,regular beer (4.5% ABV),1027
51121,9:43:39,919575683,54,5.0.14.0,1,28,start,trial_n,0,500,0,0,NA_n,1,1026,1,regular beer (4.5% ABV)       and £ 10.25,0,1,non-alcoholic beer (0.0% ABV),0,1,Click on the answer of your choice,0,1,or,0,1,Which option would you prefer right NOW?,0,1,regular beer (4.5% ABV),1026
51121,8:45:03,838866360,57,5.0.14.0,1,1,start,base_q,0,500,0,0,NA_n,0,22694,1,regular beer (4.5% ABV),0,1,non-alcoholic beer (0.0% ABV),0,1,or,0,1,Click on the answer of your choice,0,1,Which option would you prefer right NOW?,0,0,0,0
51121,8:45:03,838866360,57,5.0.14.0,1,2,start,check_NA,0,500,0,0,NA_n,0,1688,1,You chose non-alcoholic beer.       Please confirm your choice by again clicking on your chosen option.,0,1,regular beer (4.5% ABV),0,1,non-alcoholic beer (0.0% ABV),0,1,or,0,1,Click on the answer of your choice,0,1,Which option would you prefer right NOW?,0
51121,8:45:03,838866360,57,5.0.14.0,1,3,start,trial_n,0,500,0,0,NA_n,1,15607,1,regular beer (4.5% ABV)       and £ 0.2,0,1,non-alcoholic beer (0.0% ABV),0,1,Click on the answer of your choice,0,1,or,0,1,Which option would you prefer right NOW?,0,1,regular beer (4.5% ABV),15608
51121,8:45:03,838866360,57,5.0.14.0,1,4,start,trial_n,0,500,0,0,NA_n,1,1866,1,regular beer (4.5% ABV)       and £ 0.25,1,1,non-alcoholic beer (0.0% ABV),1,1,Click on the answer of your choice,1,1,or,1,1,Which option would you prefer right NOW?,1,1,regular beer (4.5% ABV),1867
51121,8:45:03,838866360,57,5.0.14.0,1,5,start,trial_n,0,500,0,0,NA_n,1,1674,1,regular beer (4.5% ABV)       and £ 0.35,0,1,non-alcoholic beer (0.0% ABV),0,1,Click on the answer of your choice,0,1,or,0,1,Which option would you prefer right NOW?,0,1,regular beer (4.5% ABV),1674
51121,8:45:03,838866360,57,5.0.14.0,1,6,start,trial_n,0,500,0,0,NA_n,1,1338,1,regular beer (4.5% ABV)       and £ 1.35,0,1,non-alcoholic beer (0.0% ABV),0,1,Click on the answer of your choice,0,1,or,0,1,Which option would you prefer right NOW?,0,1,regular beer (4.5% ABV),1339
51121,8:45:03,838866360,57,5.0.14.0,1,7,start,trial_n,0,500,0,0,NA_n,1,1953,1,regular beer (4.5% ABV)       and £ 1.85,0,1,non-alcoholic beer (0.0% ABV),0,1,Click on the answer of your choice,0,1,or,0,1,Which option would you prefer right NOW?,0,1,regular beer (4.5% ABV),1954
51121,8:45:03,838866360,57,5.0.14.0,1,8,start,trial_n,0,500,0,0,NA_n,1,1339,1,regular beer (4.5% ABV)       and £ 2.35,0,1,non-alcoholic beer (0.0% ABV),0,1,Click on the answer of your choice,0,1,or,0,1,Which option would you prefer right NOW?,0,1,regular beer (4.5% ABV),1339
51121,8:45:03,838866360,57,5.0.14.0,1,9,start,trial_n,0,500,0,0,NA_n,1,1251,1,regular beer (4.5% ABV)       and £ 2.45,0,1,non-alcoholic beer (0.0% ABV),0,1,Click on the answer of your choice,0,1,or,0,1,Which option would you prefer right NOW?,0,1,regular beer (4.5% ABV),1251
51121,8:45:03,838866360,57,5.0.14.0,1,10,start,trial_n,0,500,0,0,NA_n,1,1306,1,regular beer (4.5% ABV)       and £ 2.65,0,1,non-alcoholic beer (0.0% ABV),0,1,Click on the answer of your choice,0,1,or,0,1,Which option would you prefer right NOW?,0,1,regular beer (4.5% ABV),1306
51121,8:45:03,838866360,57,5.0.14.0,1,11,start,trial_n,0,500,0,0,NA_n,1,1129,1,regular beer (4.5% ABV)       and £ 2.7,0,1,non-alcoholic beer (0.0% ABV),0,1,Click on the answer of your choice,0,1,or,0,1,Which option would you prefer right NOW?,0,1,regular beer (4.5% ABV),1130
51121,8:45:03,838866360,57,5.0.14.0,1,12,start,trial_n,0,500,0,0,NA_n,1,1079,1,regular beer (4.5% ABV)       and £ 3.7,0,1,non-alcoholic beer (0.0% ABV),0,1,Click on the answer of your choice,0,1,or,0,1,Which option would you prefer right NOW?,0,1,regular beer (4.5% ABV),1080
51121,8:45:03,838866360,57,5.0.14.0,1,13,start,trial_n,0,500,0,0,NA_n,1,1255,1,regular beer (4.5% ABV)       and £ 3.75,0,1,non-alcoholic beer (0.0% ABV),0,1,Click on the answer of your choice,0,1,or,0,1,Which option would you prefer right NOW?,0,1,regular beer (4.5% ABV),1255
51121,8:45:03,838866360,57,5.0.14.0,1,14,start,trial_n,0,500,0,0,NA_n,1,1080,1,regular beer (4.5% ABV)       and £ 4.25,0,1,non-alcoholic beer (0.0% ABV),0,1,Click on the answer of your choice,0,1,or,0,1,Which option would you prefer right NOW?,0,1,regular beer (4.5% ABV),1081
51121,8:45:03,838866360,57,5.0.14.0,1,15,start,trial_n,0,500,0,0,NA_n,1,1242,1,regular beer (4.5% ABV)       and £ 4.35,0,1,non-alcoholic beer (0.0% ABV),0,1,Click on the answer of your choice,0,1,or,0,1,Which option would you prefer right NOW?,0,1,regular beer (4.5% ABV),1242
51121,8:45:03,838866360,57,5.0.14.0,1,16,start,trial_n,0,500,0,0,NA_n,1,579,1,regular beer (4.5% ABV)       and £ 4.55,0,1,non-alcoholic beer (0.0% ABV),0,1,Click on the answer of your choice,0,1,or,0,1,Which option would you prefer right NOW?,0,1,regular beer (4.5% ABV),579
51121,8:45:03,838866360,57,5.0.14.0,1,17,start,trial_n,0,500,0,0,NA_n,1,907,1,regular beer (4.5% ABV)       and £ 5.55,0,1,non-alcoholic beer (0.0% ABV),0,1,Click on the answer of your choice,0,1,or,0,1,Which option would you prefer right NOW?,0,1,regular beer (4.5% ABV),907
51121,8:45:03,838866360,57,5.0.14.0,1,18,start,trial_n,0,500,0,0,NA_n,1,427,1,regular beer (4.5% ABV)       and £ 5.65,0,1,non-alcoholic beer (0.0% ABV),0,1,Click on the answer of your choice,0,1,or,0,1,Which option would you prefer right NOW?,0,1,regular beer (4.5% ABV),427
51121,8:45:03,838866360,57,5.0.14.0,1,19,start,trial_n,0,500,0,0,NA_n,1,554,1,regular beer (4.5% ABV)       and £ 6.15,0,1,non-alcoholic beer (0.0% ABV),0,1,Click on the answer of your choice,0,1,or,0,1,Which option would you prefer right NOW?,0,1,regular beer (4.5% ABV),554
51121,8:45:03,838866360,57,5.0.14.0,1,20,start,trial_n,0,500,0,0,NA_n,1,946,1,regular beer (4.5% ABV)       and £ 6.35,0,1,non-alcoholic beer (0.0% ABV),0,1,Click on the answer of your choice,0,1,or,0,1,Which option would you prefer right NOW?,0,1,regular beer (4.5% ABV),946
51121,8:45:03,838866360,57,5.0.14.0,1,21,start,trial_n,0,500,0,0,NA_n,1,450,1,regular beer (4.5% ABV)       and £ 6.4,0,1,non-alcoholic beer (0.0% ABV),0,1,Click on the answer of your choice,0,1,or,0,1,Which option would you prefer right NOW?,0,1,regular beer (4.5% ABV),451
51121,8:45:03,838866360,57,5.0.14.0,1,22,start,trial_n,0,500,0,0,NA_n,1,683,1,regular beer (4.5% ABV)       and £ 7.4,0,1,non-alcoholic beer (0.0% ABV),0,1,Click on the answer of your choice,0,1,or,0,1,Which option would you prefer right NOW?,0,1,regular beer (4.5% ABV),683
51121,8:45:03,838866360,57,5.0.14.0,1,23,start,trial_n,0,500,0,0,NA_n,1,946,1,regular beer (4.5% ABV)       and £ 7.5,0,1,non-alcoholic beer (0.0% ABV),0,1,Click on the answer of your choice,0,1,or,0,1,Which option would you prefer right NOW?,0,1,regular beer (4.5% ABV),947
51121,8:45:03,838866360,57,5.0.14.0,1,24,start,trial_n,0,500,0,0,NA_n,1,979,1,regular beer (4.5% ABV)       and £ 8,0,1,non-alcoholic beer (0.0% ABV),0,1,Click on the answer of your choice,0,1,or,0,1,Which option would you prefer right NOW?,0,1,regular beer (4.5% ABV),979
51121,8:45:03,838866360,57,5.0.14.0,1,25,start,trial_n,0,500,0,0,NA_n,1,963,1,regular beer (4.5% ABV)       and £ 9,0,1,non-alcoholic beer (0.0% ABV),0,1,Click on the answer of your choice,0,1,or,0,1,Which option would you prefer right NOW?,0,1,regular beer (4.5% ABV),963
51121,8:45:03,838866360,57,5.0.14.0,1,26,start,trial_n,0,500,0,0,NA_n,1,850,1,regular beer (4.5% ABV)       and £ 9.05,0,1,non-alcoholic beer (0.0% ABV),0,1,Click on the answer of your choice,0,1,or,0,1,Which option would you prefer right NOW?,0,1,regular beer (4.5% ABV),851
51121,8:45:03,838866360,57,5.0.14.0,1,27,start,trial_n,0,500,0,0,NA_n,1,482,1,regular beer (4.5% ABV)       and £ 9.25,0,1,non-alcoholic beer (0.0% ABV),0,1,Click on the answer of your choice,0,1,or,0,1,Which option would you prefer right NOW?,0,1,regular beer (4.5% ABV),483
51121,8:45:03,838866360,57,5.0.14.0,1,28,start,trial_n,0,500,0,0,NA_n,1,1018,1,regular beer (4.5% ABV)       and £ 9.35,0,1,non-alcoholic beer (0.0% ABV),0,1,Click on the answer of your choice,0,1,or,0,1,Which option would you prefer right NOW?,0,1,regular beer (4.5% ABV),1018
51121,8:45:03,838866360,57,5.0.14.0,1,29,start,trial_n,0,500,0,0,NA_n,1,811,1,regular beer (4.5% ABV)       and £ 9.55,0,1,non-alcoholic beer (0.0% ABV),0,1,Click on the answer of your choice,0,1,or,0,1,Which option would you prefer right NOW?,0,1,regular beer (4.5% ABV),811
51121,8:45:03,838866360,57,5.0.14.0,1,30,start,trial_n,0,500,0,0,NA_n,1,537,1,regular beer (4.5% ABV)       and £ 10.55,0,1,non-alcoholic beer (0.0% ABV),0,1,Click on the answer of your choice,0,1,or,0,1,Which option would you prefer right NOW?,0,1,regular beer (4.5% ABV),538
51121,9:49:18,270202353,58,5.0.14.0,1,1,start,base_q,0,500,0,0,NA_n,0,11920,1,regular beer (4.5% ABV),0,1,non-alcoholic beer (0.0% ABV),0,1,or,0,1,Click on the answer of your choice,0,1,Which option would you prefer right NOW?,0,0,0,0
51121,9:49:18,270202353,58,5.0.14.0,1,2,start,check_NA,0,500,0,0,NA_n,0,12152,1,You chose non-alcoholic beer.       Please confirm your choice by again clicking on your chosen option.,0,1,regular beer (4.5% ABV),0,1,non-alcoholic beer (0.0% ABV),0,1,or,0,1,Click on the answer of your choice,0,1,Which option would you prefer right NOW?,0
51121,9:49:18,270202353,58,5.0.14.0,1,3,start,trial_n,0,500,0,0,NA_n,1,8563,1,regular beer (4.5% ABV)       and £ 1,0,1,non-alcoholic beer (0.0% ABV),0,1,Click on the answer of your choice,0,1,or,0,1,Which option would you prefer right NOW?,0,1,regular beer (4.5% ABV),8564
51121,9:49:18,270202353,58,5.0.14.0,1,4,start,trial_n,0,500,0,0,NA_n,1,10274,1,regular beer (4.5% ABV)       and £ 1.2,0,1,non-alcoholic beer (0.0% ABV),0,1,Click on the answer of your choice,0,1,or,0,1,Which option would you prefer right NOW?,0,1,regular beer (4.5% ABV),10275
51121,9:49:18,270202353,58,5.0.14.0,1,5,start,trial_n,0,500,0,0,NA_n,1,10989,1,regular beer (4.5% ABV)       and £ 1.3,0,1,non-alcoholic beer (0.0% ABV),0,1,Click on the answer of your choice,0,1,or,0,1,Which option would you prefer right NOW?,0,1,regular beer (4.5% ABV),10990
51121,9:49:18,270202353,58,5.0.14.0,1,6,start,trial_n,0,500,0,0,NA_n,1,1191,1,regular beer (4.5% ABV)       and £ 1.35,0,1,non-alcoholic beer (0.0% ABV),0,1,Click on the answer of your choice,0,1,or,0,1,Which option would you prefer right NOW?,0,1,regular beer (4.5% ABV),1192
51121,9:49:18,270202353,58,5.0.14.0,1,7,start,trial_n,0,500,0,0,NA_n,1,2087,1,regular beer (4.5% ABV)       and £ 1.85,1,1,non-alcoholic beer (0.0% ABV),1,1,Click on the answer of your choice,1,1,or,1,1,Which option would you prefer right NOW?,1,1,regular beer (4.5% ABV),2088
51121,9:49:18,270202353,58,5.0.14.0,1,8,start,trial_n,0,500,0,0,NA_n,1,12291,1,regular beer (4.5% ABV)       and £ 1.95,1,1,non-alcoholic beer (0.0% ABV),1,1,Click on the answer of your choice,1,1,or,1,1,Which option would you prefer right NOW?,1,1,regular beer (4.5% ABV),12292
51121,9:49:18,270202353,58,5.0.14.0,1,9,start,trial_n,0,500,0,0,NA_n,1,439,1,regular beer (4.5% ABV)       and £ 2.15,0,1,non-alcoholic beer (0.0% ABV),0,1,Click on the answer of your choice,0,1,or,0,1,Which option would you prefer right NOW?,0,1,regular beer (4.5% ABV),439
51121,9:49:18,270202353,58,5.0.14.0,1,10,start,trial_n,0,500,0,0,NA_n,1,1142,1,regular beer (4.5% ABV)       and £ 3.15,0,1,non-alcoholic beer (0.0% ABV),0,1,Click on the answer of your choice,0,1,or,0,1,Which option would you prefer right NOW?,0,1,regular beer (4.5% ABV),1143
51121,9:49:18,270202353,58,5.0.14.0,1,11,start,trial_n,0,500,0,0,NA_n,1,816,1,regular beer (4.5% ABV)       and £ 3.65,0,1,non-alcoholic beer (0.0% ABV),0,1,Click on the answer of your choice,0,1,or,0,1,Which option would you prefer right NOW?,0,1,regular beer (4.5% ABV),817
51121,9:49:18,270202353,58,5.0.14.0,1,12,start,trial_n,0,500,0,0,NA_n,1,28300,1,regular beer (4.5% ABV)       and £ 3.7,0,1,non-alcoholic beer (0.0% ABV),0,1,Click on the answer of your choice,0,1,or,0,1,Which option would you prefer right NOW?,0,1,regular beer (4.5% ABV),28301
51121,9:49:18,270202353,58,5.0.14.0,1,13,start,trial_n,0,500,0,0,NA_n,1,837,1,regular beer (4.5% ABV)       and £ 4.2,0,1,non-alcoholic beer (0.0% ABV),0,1,Click on the answer of your choice,0,1,or,0,1,Which option would you prefer right NOW?,0,1,regular beer (4.5% ABV),838
51121,9:49:18,270202353,58,5.0.14.0,1,14,start,trial_n,0,500,0,0,NA_n,1,851,1,regular beer (4.5% ABV)       and £ 4.3,0,1,non-alcoholic beer (0.0% ABV),0,1,Click on the answer of your choice,0,1,or,0,1,Which option would you prefer right NOW?,0,1,regular beer (4.5% ABV),851
51121,9:49:18,270202353,58,5.0.14.0,1,15,start,trial_n,0,500,0,0,NA_n,1,473,1,regular beer (4.5% ABV)       and £ 4.35,0,1,non-alcoholic beer (0.0% ABV),0,1,Click on the answer of your choice,0,1,or,0,1,Which option would you prefer right NOW?,0,1,regular beer (4.5% ABV),473
51121,9:49:18,270202353,58,5.0.14.0,1,16,start,trial_n,0,500,0,0,NA_n,1,1355,1,regular beer (4.5% ABV)       and £ 4.55,1,1,non-alcoholic beer (0.0% ABV),1,1,Click on the answer of your choice,1,1,or,1,1,Which option would you prefer right NOW?,1,1,regular beer (4.5% ABV),1356
51121,9:49:18,270202353,58,5.0.14.0,1,17,start,trial_n,0,500,0,0,NA_n,1,779,1,regular beer (4.5% ABV)       and £ 5.55,3,1,non-alcoholic beer (0.0% ABV),3,1,Click on the answer of your choice,3,1,or,3,1,Which option would you prefer right NOW?,3,1,regular beer (4.5% ABV),779
51121,9:49:18,270202353,58,5.0.14.0,1,18,start,trial_n,0,500,0,0,NA_n,1,697,1,regular beer (4.5% ABV)       and £ 6.05,0,1,non-alcoholic beer (0.0% ABV),0,1,Click on the answer of your choice,0,1,or,0,1,Which option would you prefer right NOW?,0,1,regular beer (4.5% ABV),697
51121,9:49:18,270202353,58,5.0.14.0,1,19,start,trial_n,0,500,0,0,NA_n,1,789,1,regular beer (4.5% ABV)       and £ 6.25,0,1,non-alcoholic beer (0.0% ABV),0,1,Click on the answer of your choice,0,1,or,0,1,Which option would you prefer right NOW?,0,1,regular beer (4.5% ABV),790
51121,9:49:18,270202353,58,5.0.14.0,1,20,start,trial_n,0,500,0,0,NA_n,1,678,1,regular beer (4.5% ABV)       and £ 6.3,0,1,non-alcoholic beer (0.0% ABV),0,1,Click on the answer of your choice,0,1,or,0,1,Which option would you prefer right NOW?,0,1,regular beer (4.5% ABV),679
51121,9:49:18,270202353,58,5.0.14.0,1,21,start,trial_n,0,500,0,0,NA_n,1,665,1,regular beer (4.5% ABV)       and £ 7.3,0,1,non-alcoholic beer (0.0% ABV),0,1,Click on the answer of your choice,0,1,or,0,1,Which option would you prefer right NOW?,0,1,regular beer (4.5% ABV),665
51121,9:49:18,270202353,58,5.0.14.0,1,22,start,trial_n,0,500,0,0,NA_n,1,519,1,regular beer (4.5% ABV)       and £ 7.4,0,1,non-alcoholic beer (0.0% ABV),0,1,Click on the answer of your choice,0,1,or,0,1,Which option would you prefer right NOW?,0,1,regular beer (4.5% ABV),519
51121,9:49:18,270202353,58,5.0.14.0,1,23,start,trial_n,0,500,0,0,NA_n,1,700,1,regular beer (4.5% ABV)       and £ 7.45,1,1,non-alcoholic beer (0.0% ABV),1,1,Click on the answer of your choice,1,1,or,1,1,Which option would you prefer right NOW?,1,1,regular beer (4.5% ABV),702
51121,9:49:18,270202353,58,5.0.14.0,1,24,start,trial_n,0,500,0,0,NA_n,1,804,1,regular beer (4.5% ABV)       and £ 7.55,0,1,non-alcoholic beer (0.0% ABV),0,1,Click on the answer of your choice,0,1,or,0,1,Which option would you prefer right NOW?,0,1,regular beer (4.5% ABV),805
51121,9:49:18,270202353,58,5.0.14.0,1,25,start,trial_n,0,500,0,0,NA_n,1,1397,1,regular beer (4.5% ABV)       and £ 8.55,0,1,non-alcoholic beer (0.0% ABV),0,1,Click on the answer of your choice,0,1,or,0,1,Which option would you prefer right NOW?,0,1,regular beer (4.5% ABV),1398
51121,9:49:18,270202353,58,5.0.14.0,1,26,start,trial_n,0,500,0,0,NA_n,1,930,1,regular beer (4.5% ABV)       and £ 8.75,0,1,non-alcoholic beer (0.0% ABV),0,1,Click on the answer of your choice,0,1,or,0,1,Which option would you prefer right NOW?,0,1,regular beer (4.5% ABV),931
51121,9:49:18,270202353,58,5.0.14.0,1,27,start,trial_n,0,500,0,0,NA_n,1,742,1,regular beer (4.5% ABV)       and £ 9.25,0,1,non-alcoholic beer (0.0% ABV),0,1,Click on the answer of your choice,0,1,or,0,1,Which option would you prefer right NOW?,0,1,regular beer (4.5% ABV),743
51121,9:49:18,270202353,58,5.0.14.0,1,28,start,trial_n,0,500,0,0,NA_n,1,842,1,regular beer (4.5% ABV)       and £ 9.45,0,1,non-alcoholic beer (0.0% ABV),0,1,Click on the answer of your choice,0,1,or,0,1,Which option would you prefer right NOW?,0,1,regular beer (4.5% ABV),842
51121,9:49:18,270202353,58,5.0.14.0,1,29,start,trial_n,0,500,0,0,NA_n,1,651,1,regular beer (4.5% ABV)       and £ 10.45,1,1,non-alcoholic beer (0.0% ABV),1,1,Click on the answer of your choice,1,1,or,1,1,Which option would you prefer right NOW?,1,1,regular beer (4.5% ABV),651
50521,4:13:34,192911033,72,5.0.14.0,1,1,start,base_q,0,500,0,0,beer,0,15098,1,regular beer (4.5% ABV),3,1,non-alcoholic beer (0.0% ABV),3,1,or,3,1,Click on the answer of your choice,3,1,Which option would you prefer right NOW?,3,0,0,0
50521,4:13:34,192911033,72,5.0.14.0,1,2,start,check_beer,0,500,0,0,beer,0,58,1,You chose regular beer.       Please confirm your choice by again clicking on your chosen option.,2,1,regular beer (4.5% ABV),2,1,non-alcoholic beer (0.0% ABV),2,1,or,2,1,Click on the answer of your choice,2,1,Which option would you prefer right NOW?,2
50521,4:13:34,192911033,72,5.0.14.0,1,4,start,trial_e,0,500,0,0,NA,0,217,1,regular beer (4.5% ABV),0,1,non-alcoholic beer (0.0% ABV)       and £ 0.5,0,1,Click on the answer of your choice,0,1,or,0,1,Which option would you prefer right NOW?,0,1,regular beer (4.5% ABV),218
50521,4:13:34,192911033,72,5.0.14.0,1,5,start,check_finalE,0,500,0,0,beer,0,1602,1,You chose non-alcoholic beer.       Please confirm your choice by again clicking on your chosen option.,0,1,regular beer (4.5% ABV),0,1,non-alcoholic beer (0.0% ABV)       and £ 0.5,0,1,or,0,1,Click on the answer of your choice,0,1,Which option would you prefer right NOW?,0
50521,4:13:34,192911033,72,5.0.14.0,1,6,start,trial_e,0,500,0,0,beer,1,1066,1,regular beer (4.5% ABV),0,1,non-alcoholic beer (0.0% ABV)       and £ 0.6,0,1,Click on the answer of your choice,0,1,or,0,1,Which option would you prefer right NOW?,0,1,regular beer (4.5% ABV),1066
50521,4:13:34,192911033,72,5.0.14.0,1,7,start,trial_e,0,500,0,0,beer,1,963,1,regular beer (4.5% ABV),0,1,non-alcoholic beer (0.0% ABV)       and £ 0.65,0,1,Click on the answer of your choice,0,1,or,0,1,Which option would you prefer right NOW?,0,1,regular beer (4.5% ABV),966
50521,4:13:34,192911033,72,5.0.14.0,1,8,start,trial_e,0,500,0,0,beer,1,698,1,regular beer (4.5% ABV),0,1,non-alcoholic beer (0.0% ABV)       and £ 1.65,0,1,Click on the answer of your choice,0,1,or,0,1,Which option would you prefer right NOW?,0,1,regular beer (4.5% ABV),699
50521,4:13:34,192911033,72,5.0.14.0,1,9,start,trial_e,0,500,0,0,beer,1,521,1,regular beer (4.5% ABV),0,1,non-alcoholic beer (0.0% ABV)       and £ 1.85,0,1,Click on the answer of your choice,0,1,or,0,1,Which option would you prefer right NOW?,0,1,regular beer (4.5% ABV),521
50521,4:13:34,192911033,72,5.0.14.0,1,10,start,trial_e,0,500,0,0,beer,1,1073,1,regular beer (4.5% ABV),0,1,non-alcoholic beer (0.0% ABV)       and £ 1.9,0,1,Click on the answer of your choice,0,1,or,0,1,Which option would you prefer right NOW?,0,1,regular beer (4.5% ABV),1074
50521,4:13:34,192911033,72,5.0.14.0,1,11,start,trial_e,0,500,0,0,beer,1,713,1,regular beer (4.5% ABV),0,1,non-alcoholic beer (0.0% ABV)       and £ 2,0,1,Click on the answer of your choice,0,1,or,0,1,Which option would you prefer right NOW?,0,1,regular beer (4.5% ABV),714
50521,4:13:34,192911033,72,5.0.14.0,1,12,start,trial_e,0,500,0,0,beer,1,545,1,regular beer (4.5% ABV),0,1,non-alcoholic beer (0.0% ABV)       and £ 2.5,0,1,Click on the answer of your choice,0,1,or,0,1,Which option would you prefer right NOW?,0,1,regular beer (4.5% ABV),546
50521,4:13:34,192911033,72,5.0.14.0,1,13,start,trial_e,0,500,0,0,beer,1,433,1,regular beer (4.5% ABV),0,1,non-alcoholic beer (0.0% ABV)       and £ 3.5,0,1,Click on the answer of your choice,0,1,or,0,1,Which option would you prefer right NOW?,0,1,regular beer (4.5% ABV),433
50521,4:13:34,192911033,72,5.0.14.0,1,14,start,trial_e,0,500,0,0,beer,1,969,1,regular beer (4.5% ABV),1,1,non-alcoholic beer (0.0% ABV)       and £ 3.7,1,1,Click on the answer of your choice,1,1,or,1,1,Which option would you prefer right NOW?,1,1,regular beer (4.5% ABV),969
50521,4:13:34,192911033,72,5.0.14.0,1,15,start,trial_e,0,500,0,0,beer,1,1058,1,regular beer (4.5% ABV),0,1,non-alcoholic beer (0.0% ABV)       and £ 4.7,0,1,Click on the answer of your choice,0,1,or,0,1,Which option would you prefer right NOW?,0,1,regular beer (4.5% ABV),1059
50521,4:13:34,192911033,72,5.0.14.0,1,16,start,trial_e,0,500,0,0,beer,1,713,1,regular beer (4.5% ABV),0,1,non-alcoholic beer (0.0% ABV)       and £ 4.75,0,1,Click on the answer of your choice,0,1,or,0,1,Which option would you prefer right NOW?,0,1,regular beer (4.5% ABV),713
50521,4:13:34,192911033,72,5.0.14.0,1,17,start,trial_e,0,500,0,0,beer,1,481,1,regular beer (4.5% ABV),0,1,non-alcoholic beer (0.0% ABV)       and £ 5.25,0,1,Click on the answer of your choice,0,1,or,0,1,Which option would you prefer right NOW?,0,1,regular beer (4.5% ABV),481
50521,4:13:34,192911033,72,5.0.14.0,1,18,start,trial_e,0,500,0,0,beer,1,952,1,regular beer (4.5% ABV),0,1,non-alcoholic beer (0.0% ABV)       and £ 5.35,0,1,Click on the answer of your choice,0,1,or,0,1,Which option would you prefer right NOW?,0,1,regular beer (4.5% ABV),953
50521,4:13:34,192911033,72,5.0.14.0,1,19,start,trial_e,0,500,0,0,beer,1,801,1,regular beer (4.5% ABV),2,1,non-alcoholic beer (0.0% ABV)       and £ 5.55,2,1,Click on the answer of your choice,2,1,or,2,1,Which option would you prefer right NOW?,2,1,regular beer (4.5% ABV),805
50521,4:13:34,192911033,72,5.0.14.0,1,20,start,trial_e,0,500,0,0,beer,1,728,1,regular beer (4.5% ABV),0,1,non-alcoholic beer (0.0% ABV)       and £ 5.6,0,1,Click on the answer of your choice,0,1,or,0,1,Which option would you prefer right NOW?,0,1,regular beer (4.5% ABV),729
50521,4:13:34,192911033,72,5.0.14.0,1,21,start,trial_e,0,500,0,0,beer,1,736,1,regular beer (4.5% ABV),8,1,non-alcoholic beer (0.0% ABV)       and £ 6.6,8,1,Click on the answer of your choice,8,1,or,8,1,Which option would you prefer right NOW?,8,1,regular beer (4.5% ABV),737
50521,4:13:34,192911033,72,5.0.14.0,1,22,start,trial_e,0,500,0,0,beer,1,682,1,regular beer (4.5% ABV),0,1,non-alcoholic beer (0.0% ABV)       and £ 7.1,0,1,Click on the answer of your choice,0,1,or,0,1,Which option would you prefer right NOW?,0,1,regular beer (4.5% ABV),682
50521,4:13:34,192911033,72,5.0.14.0,1,23,start,trial_e,0,500,0,0,beer,1,466,1,regular beer (4.5% ABV),0,1,non-alcoholic beer (0.0% ABV)       and £ 7.3,0,1,Click on the answer of your choice,0,1,or,0,1,Which option would you prefer right NOW?,0,1,regular beer (4.5% ABV),466
50521,4:13:34,192911033,72,5.0.14.0,1,24,start,trial_e,0,500,0,0,beer,1,497,1,regular beer (4.5% ABV),0,1,non-alcoholic beer (0.0% ABV)       and £ 7.4,0,1,Click on the answer of your choice,0,1,or,0,1,Which option would you prefer right NOW?,0,1,regular beer (4.5% ABV),498
50521,4:13:34,192911033,72,5.0.14.0,1,25,start,trial_e,0,500,0,0,beer,1,771,1,regular beer (4.5% ABV),1,1,non-alcoholic beer (0.0% ABV)       and £ 7.45,1,1,Click on the answer of your choice,1,1,or,1,1,Which option would you prefer right NOW?,1,1,regular beer (4.5% ABV),772
50521,4:13:34,192911033,72,5.0.14.0,1,26,start,trial_e,0,500,0,0,NA,0,473,1,regular beer (4.5% ABV),0,1,non-alcoholic beer (0.0% ABV)       and £ 8.45,0,1,Click on the answer of your choice,0,1,or,0,1,Which option would you prefer right NOW?,0,1,regular beer (4.5% ABV),473
50521,4:13:34,192911033,72,5.0.14.0,1,27,start,check_finalE,0,500,0,0,NA,1,873,1,You chose non-alcoholic beer.       Please confirm your choice by again clicking on your chosen option.,1,1,regular beer (4.5% ABV),1,1,non-alcoholic beer (0.0% ABV)       and £ 8.45,1,1,or,1,1,Click on the answer of your choice,1,1,Which option would you prefer right NOW?,1
51121,9:59:29,708142634,77,5.0.14.0,1,1,start,base_q,0,500,0,0,beer,0,13868,1,regular beer (4.5% ABV),0,1,non-alcoholic beer (0.0% ABV),0,1,or,0,1,Click on the answer of your choice,0,1,Which option would you prefer right NOW?,0,0,0,0
51121,9:59:29,708142634,77,5.0.14.0,1,2,start,check_beer,0,500,0,0,beer,0,11937,1,You chose regular beer.       Please confirm your choice by again clicking on your chosen option.,0,1,regular beer (4.5% ABV),0,1,non-alcoholic beer (0.0% ABV),0,1,or,0,1,Click on the answer of your choice,0,1,Which option would you prefer right NOW?,0
51121,9:59:29,708142634,77,5.0.14.0,1,4,start,trial_e,0,500,0,0,NA,0,19361,1,regular beer (4.5% ABV),0,1,non-alcoholic beer (0.0% ABV)       and £ 0.05,0,1,Click on the answer of your choice,0,1,or,0,1,Which option would you prefer right NOW?,0,1,regular beer (4.5% ABV),19361
51121,9:59:29,708142634,77,5.0.14.0,1,5,start,check_finalE,0,500,0,0,NA,1,395,1,You chose non-alcoholic beer.       Please confirm your choice by again clicking on your chosen option.,0,1,regular beer (4.5% ABV),0,1,non-alcoholic beer (0.0% ABV)       and £ 0.05,0,1,or,0,1,Click on the answer of your choice,0,1,Which option would you prefer right NOW?,0
51121,8:57:43,272222174,80,5.0.14.0,1,1,start,base_q,0,500,0,0,NA_n,0,120412,1,regular beer (4.5% ABV),1,1,non-alcoholic beer (0.0% ABV),1,1,or,1,1,Click on the answer of your choice,1,1,Which option would you prefer right NOW?,1,0,0,0
51121,8:57:43,272222174,80,5.0.14.0,1,2,start,check_NA,0,500,0,0,beer,0,1600,1,You chose non-alcoholic beer.       Please confirm your choice by again clicking on your chosen option.,0,1,regular beer (4.5% ABV),0,1,non-alcoholic beer (0.0% ABV),0,1,or,0,1,Click on the answer of your choice,0,1,Which option would you prefer right NOW?,0
51121,8:57:43,272222174,80,5.0.14.0,1,4,start,trial_e,0,500,0,0,beer,1,158,1,regular beer (4.5% ABV),0,1,non-alcoholic beer (0.0% ABV)       and £ 0.1,0,1,Click on the answer of your choice,0,1,or,0,1,Which option would you prefer right NOW?,0,1,regular beer (4.5% ABV),159
51121,8:57:43,272222174,80,5.0.14.0,1,5,start,trial_e,0,500,0,0,NA,0,721,1,regular beer (4.5% ABV),0,1,non-alcoholic beer (0.0% ABV)       and £ 0.6,0,1,Click on the answer of your choice,0,1,or,0,1,Which option would you prefer right NOW?,0,1,regular beer (4.5% ABV),721
51121,8:57:43,272222174,80,5.0.14.0,1,6,start,check_finalE,0,500,0,0,beer,0,15100,1,You chose non-alcoholic beer.       Please confirm your choice by again clicking on your chosen option.,0,1,regular beer (4.5% ABV),0,1,non-alcoholic beer (0.0% ABV)       and £ 0.6,0,1,or,0,1,Click on the answer of your choice,0,1,Which option would you prefer right NOW?,0
51121,8:57:43,272222174,80,5.0.14.0,1,7,start,trial_e,0,500,0,0,beer,1,2673,1,regular beer (4.5% ABV),1,1,non-alcoholic beer (0.0% ABV)       and £ 0.65,1,1,Click on the answer of your choice,1,1,or,1,1,Which option would you prefer right NOW?,1,1,regular beer (4.5% ABV),2673
51121,8:57:43,272222174,80,5.0.14.0,1,8,start,trial_e,0,500,0,0,beer,1,824,1,regular beer (4.5% ABV),0,1,non-alcoholic beer (0.0% ABV)       and £ 0.85,0,1,Click on the answer of your choice,0,1,or,0,1,Which option would you prefer right NOW?,0,1,regular beer (4.5% ABV),824
51121,8:57:43,272222174,80,5.0.14.0,1,9,start,trial_e,0,500,0,0,beer,1,1733,1,regular beer (4.5% ABV),0,1,non-alcoholic beer (0.0% ABV)       and £ 1.85,0,1,Click on the answer of your choice,0,1,or,0,1,Which option would you prefer right NOW?,0,1,regular beer (4.5% ABV),1733
51121,8:57:43,272222174,80,5.0.14.0,1,10,start,trial_e,0,500,0,0,NA,0,16974,1,regular beer (4.5% ABV),0,1,non-alcoholic beer (0.0% ABV)       and £ 1.9,0,1,Click on the answer of your choice,0,1,or,0,1,Which option would you prefer right NOW?,0,1,regular beer (4.5% ABV),16975
51121,8:57:43,272222174,80,5.0.14.0,1,11,start,check_finalE,0,500,0,0,NA,1,14130,1,You chose non-alcoholic beer.       Please confirm your choice by again clicking on your chosen option.,0,1,regular beer (4.5% ABV),0,1,non-alcoholic beer (0.0% ABV)       and £ 1.9,0,1,or,0,1,Click on the answer of your choice,0,1,Which option would you prefer right NOW?,0
51121,9:01:42,933264771,62,5.0.14.0,1,1,start,base_q,0,500,0,0,beer,0,14423,1,regular beer (4.5% ABV),0,1,non-alcoholic beer (0.0% ABV),0,1,or,0,1,Click on the answer of your choice,0,1,Which option would you prefer right NOW?,0,0,0,0
51121,9:01:42,933264771,62,5.0.14.0,1,2,start,check_beer,0,500,0,0,beer,0,16315,1,You chose regular beer.       Please confirm your choice by again clicking on your chosen option.,1,1,regular beer (4.5% ABV),1,1,non-alcoholic beer (0.0% ABV),1,1,or,1,1,Click on the answer of your choice,1,1,Which option would you prefer right NOW?,1
51121,9:01:42,933264771,62,5.0.14.0,1,4,start,trial_e,0,500,0,0,beer,1,56,1,regular beer (4.5% ABV),0,1,non-alcoholic beer (0.0% ABV)       and £ 1,0,1,Click on the answer of your choice,0,1,or,0,1,Which option would you prefer right NOW?,0,1,regular beer (4.5% ABV),57
51121,9:01:42,933264771,62,5.0.14.0,1,5,start,trial_e,0,500,0,0,beer,1,18982,1,regular beer (4.5% ABV),0,1,non-alcoholic beer (0.0% ABV)       and £ 1.5,0,1,Click on the answer of your choice,0,1,or,0,1,Which option would you prefer right NOW?,0,1,regular beer (4.5% ABV),18983
51121,9:01:42,933264771,62,5.0.14.0,1,6,start,trial_e,0,500,0,0,beer,1,2896,1,regular beer (4.5% ABV),0,1,non-alcoholic beer (0.0% ABV)       and £ 1.55,0,1,Click on the answer of your choice,0,1,or,0,1,Which option would you prefer right NOW?,0,1,regular beer (4.5% ABV),2897
51121,9:01:42,933264771,62,5.0.14.0,1,7,start,trial_e,0,500,0,0,beer,1,846,1,regular beer (4.5% ABV),0,1,non-alcoholic beer (0.0% ABV)       and £ 1.75,0,1,Click on the answer of your choice,0,1,or,0,1,Which option would you prefer right NOW?,0,1,regular beer (4.5% ABV),850
51121,9:01:42,933264771,62,5.0.14.0,1,8,start,trial_e,0,500,0,0,beer,1,1432,1,regular beer (4.5% ABV),0,1,non-alcoholic beer (0.0% ABV)       and £ 1.85,0,1,Click on the answer of your choice,0,1,or,0,1,Which option would you prefer right NOW?,0,1,regular beer (4.5% ABV),1432
51121,9:01:42,933264771,62,5.0.14.0,1,9,start,trial_e,0,500,0,0,beer,1,593,1,regular beer (4.5% ABV),0,1,non-alcoholic beer (0.0% ABV)       and £ 2.35,0,1,Click on the answer of your choice,0,1,or,0,1,Which option would you prefer right NOW?,0,1,regular beer (4.5% ABV),593
51121,9:01:42,933264771,62,5.0.14.0,1,10,start,trial_e,0,500,0,0,beer,1,995,1,regular beer (4.5% ABV),0,1,non-alcoholic beer (0.0% ABV)       and £ 2.4,0,1,Click on the answer of your choice,0,1,or,0,1,Which option would you prefer right NOW?,0,1,regular beer (4.5% ABV),995
51121,9:01:42,933264771,62,5.0.14.0,1,11,start,trial_e,0,500,0,0,beer,1,680,1,regular beer (4.5% ABV),0,1,non-alcoholic beer (0.0% ABV)       and £ 3.4,0,1,Click on the answer of your choice,0,1,or,0,1,Which option would you prefer right NOW?,0,1,regular beer (4.5% ABV),681
51121,9:01:42,933264771,62,5.0.14.0,1,12,start,trial_e,0,500,0,0,beer,1,896,1,regular beer (4.5% ABV),0,1,non-alcoholic beer (0.0% ABV)       and £ 3.6,0,1,Click on the answer of your choice,0,1,or,0,1,Which option would you prefer right NOW?,0,1,regular beer (4.5% ABV),897
51121,9:01:42,933264771,62,5.0.14.0,1,13,start,trial_e,0,500,0,0,NA,0,984,1,regular beer (4.5% ABV),0,1,non-alcoholic beer (0.0% ABV)       and £ 3.7,0,1,Click on the answer of your choice,0,1,or,0,1,Which option would you prefer right NOW?,0,1,regular beer (4.5% ABV),985
51121,9:01:42,933264771,62,5.0.14.0,1,14,start,check_finalE,0,500,0,0,beer,0,949,1,You chose non-alcoholic beer.       Please confirm your choice by again clicking on your chosen option.,0,1,regular beer (4.5% ABV),0,1,non-alcoholic beer (0.0% ABV)       and £ 3.7,0,1,or,0,1,Click on the answer of your choice,0,1,Which option would you prefer right NOW?,0
51121,9:01:42,933264771,62,5.0.14.0,1,15,start,trial_e,0,500,0,0,NA,0,162,1,regular beer (4.5% ABV),0,1,non-alcoholic beer (0.0% ABV)       and £ 3.8,0,1,Click on the answer of your choice,0,1,or,0,1,Which option would you prefer right NOW?,0,1,regular beer (4.5% ABV),163
51121,9:01:42,933264771,62,5.0.14.0,1,16,start,check_finalE,0,500,0,0,beer,0,761,1,You chose non-alcoholic beer.       Please confirm your choice by again clicking on your chosen option.,0,1,regular beer (4.5% ABV),0,1,non-alcoholic beer (0.0% ABV)       and £ 3.8,0,1,or,0,1,Click on the answer of your choice,0,1,Which option would you prefer right NOW?,0
51121,9:01:42,933264771,62,5.0.14.0,1,17,start,trial_e,0,500,0,0,beer,1,1122,1,regular beer (4.5% ABV),0,1,non-alcoholic beer (0.0% ABV)       and £ 4,0,1,Click on the answer of your choice,0,1,or,0,1,Which option would you prefer right NOW?,0,1,regular beer (4.5% ABV),1122
51121,9:01:42,933264771,62,5.0.14.0,1,18,start,trial_e,0,500,0,0,beer,1,774,1,regular beer (4.5% ABV),0,1,non-alcoholic beer (0.0% ABV)       and £ 4.5,0,1,Click on the answer of your choice,0,1,or,0,1,Which option would you prefer right NOW?,0,1,regular beer (4.5% ABV),774
51121,9:01:42,933264771,62,5.0.14.0,1,19,start,trial_e,0,500,0,0,beer,1,674,1,regular beer (4.5% ABV),0,1,non-alcoholic beer (0.0% ABV)       and £ 5.5,0,1,Click on the answer of your choice,0,1,or,0,1,Which option would you prefer right NOW?,0,1,regular beer (4.5% ABV),674
51121,9:01:42,933264771,62,5.0.14.0,1,20,start,trial_e,0,500,0,0,beer,1,903,1,regular beer (4.5% ABV),0,1,non-alcoholic beer (0.0% ABV)       and £ 5.55,0,1,Click on the answer of your choice,0,1,or,0,1,Which option would you prefer right NOW?,0,1,regular beer (4.5% ABV),903
51121,9:01:42,933264771,62,5.0.14.0,1,21,start,trial_e,0,500,0,0,beer,1,794,1,regular beer (4.5% ABV),0,1,non-alcoholic beer (0.0% ABV)       and £ 5.75,0,1,Click on the answer of your choice,0,1,or,0,1,Which option would you prefer right NOW?,0,1,regular beer (4.5% ABV),795
51121,9:01:42,933264771,62,5.0.14.0,1,22,start,trial_e,0,500,0,0,beer,1,737,1,regular beer (4.5% ABV),0,1,non-alcoholic beer (0.0% ABV)       and £ 5.8,0,1,Click on the answer of your choice,0,1,or,0,1,Which option would you prefer right NOW?,0,1,regular beer (4.5% ABV),738
51121,9:01:42,933264771,62,5.0.14.0,1,23,start,trial_e,0,500,0,0,beer,1,960,1,regular beer (4.5% ABV),0,1,non-alcoholic beer (0.0% ABV)       and £ 5.9,0,1,Click on the answer of your choice,0,1,or,0,1,Which option would you prefer right NOW?,0,1,regular beer (4.5% ABV),961
51121,9:01:42,933264771,62,5.0.14.0,1,24,start,trial_e,0,500,0,0,beer,1,794,1,regular beer (4.5% ABV),0,1,non-alcoholic beer (0.0% ABV)       and £ 6.9,0,1,Click on the answer of your choice,0,1,or,0,1,Which option would you prefer right NOW?,0,1,regular beer (4.5% ABV),794
51121,9:01:42,933264771,62,5.0.14.0,1,25,start,trial_e,0,500,0,0,beer,1,754,1,regular beer (4.5% ABV),0,1,non-alcoholic beer (0.0% ABV)       and £ 7.4,0,1,Click on the answer of your choice,0,1,or,0,1,Which option would you prefer right NOW?,0,1,regular beer (4.5% ABV),754
51121,9:01:42,933264771,62,5.0.14.0,1,26,start,trial_e,0,500,0,0,beer,1,720,1,regular beer (4.5% ABV),0,1,non-alcoholic beer (0.0% ABV)       and £ 7.45,0,1,Click on the answer of your choice,0,1,or,0,1,Which option would you prefer right NOW?,0,1,regular beer (4.5% ABV),721
51121,9:01:42,933264771,62,5.0.14.0,1,27,start,trial_e,0,500,0,0,NA,0,1105,1,regular beer (4.5% ABV),0,1,non-alcoholic beer (0.0% ABV)       and £ 7.95,0,1,Click on the answer of your choice,0,1,or,0,1,Which option would you prefer right NOW?,0,1,regular beer (4.5% ABV),1106
51121,9:01:42,933264771,62,5.0.14.0,1,28,start,check_finalE,0,500,0,0,beer,0,1407,1,You chose non-alcoholic beer.       Please confirm your choice by again clicking on your chosen option.,0,1,regular beer (4.5% ABV),0,1,non-alcoholic beer (0.0% ABV)       and £ 7.95,0,1,or,0,1,Click on the answer of your choice,0,1,Which option would you prefer right NOW?,0
51121,9:01:42,933264771,62,5.0.14.0,1,29,start,trial_e,0,500,0,0,beer,1,297,1,regular beer (4.5% ABV),0,1,non-alcoholic beer (0.0% ABV)       and £ 8.05,0,1,Click on the answer of your choice,0,1,or,0,1,Which option would you prefer right NOW?,0,1,regular beer (4.5% ABV),298
51121,9:01:42,933264771,62,5.0.14.0,1,30,start,trial_e,0,500,0,0,beer,1,742,1,regular beer (4.5% ABV),0,1,non-alcoholic beer (0.0% ABV)       and £ 8.25,0,1,Click on the answer of your choice,0,1,or,0,1,Which option would you prefer right NOW?,0,1,regular beer (4.5% ABV),743
51121,9:01:42,933264771,62,5.0.14.0,1,31,start,trial_e,0,500,0,0,beer,1,625,1,regular beer (4.5% ABV),0,1,non-alcoholic beer (0.0% ABV)       and £ 9.25,0,1,Click on the answer of your choice,0,1,or,0,1,Which option would you prefer right NOW?,0,1,regular beer (4.5% ABV),626
51121,9:01:42,933264771,62,5.0.14.0,1,32,start,trial_e,0,500,0,0,beer,1,759,1,regular beer (4.5% ABV),0,1,non-alcoholic beer (0.0% ABV)       and £ 9.75,0,1,Click on the answer of your choice,0,1,or,0,1,Which option would you prefer right NOW?,0,1,regular beer (4.5% ABV),759
51121,9:01:42,933264771,62,5.0.14.0,1,33,start,trial_e,0,500,0,0,beer,1,732,1,regular beer (4.5% ABV),0,1,non-alcoholic beer (0.0% ABV)       and £ 9.8,0,1,Click on the answer of your choice,0,1,or,0,1,Which option would you prefer right NOW?,0,1,regular beer (4.5% ABV),732
51121,9:01:42,933264771,62,5.0.14.0,1,34,start,trial_e,0,500,0,0,beer,1,897,1,regular beer (4.5% ABV),0,1,non-alcoholic beer (0.0% ABV)       and £ 10,0,1,Click on the answer of your choice,0,1,or,0,1,Which option would you prefer right NOW?,0,1,regular beer (4.5% ABV),898
51121,9:01:42,933264771,62,5.0.14.0,1,35,start,trial_e,0,500,0,0,beer,1,697,1,regular beer (4.5% ABV),0,1,non-alcoholic beer (0.0% ABV)       and £ 11,0,1,Click on the answer of your choice,0,1,or,0,1,Which option would you prefer right NOW?,0,1,regular beer (4.5% ABV),698
51121,10:01:16,755867372,81,5.0.14.0,1,1,start,base_q,0,500,0,0,beer,0,10383,1,regular beer (4.5% ABV),1,1,non-alcoholic beer (0.0% ABV),1,1,or,1,1,Click on the answer of your choice,1,1,Which option would you prefer right NOW?,1,0,0,0
51121,10:01:16,755867372,81,5.0.14.0,1,2,start,check_beer,0,500,0,0,NA_n,0,14621,1,You chose regular beer.       Please confirm your choice by again clicking on your chosen option.,1,1,regular beer (4.5% ABV),1,1,non-alcoholic beer (0.0% ABV),1,1,or,1,1,Click on the answer of your choice,1,1,Which option would you prefer right NOW?,1
51121,10:01:16,755867372,81,5.0.14.0,1,3,start,trial_n,0,500,0,0,beer_n,0,16852,1,regular beer (4.5% ABV)       and £ 0.05,0,1,non-alcoholic beer (0.0% ABV),0,1,Click on the answer of your choice,0,1,or,0,1,Which option would you prefer right NOW?,0,1,regular beer (4.5% ABV),16853
51121,10:01:16,755867372,81,5.0.14.0,1,4,start,check_finalE,0,500,0,0,beer,0,1832,1,You chose non-alcoholic beer.       Please confirm your choice by again clicking on your chosen option.,0,1,regular beer (4.5% ABV),0,1,non-alcoholic beer (0.0% ABV)       and £ 0.05,0,1,or,0,1,Click on the answer of your choice,0,1,Which option would you prefer right NOW?,0
51121,9:59:13,927227017,82,5.0.14.0,1,1,start,base_q,0,500,0,0,beer,0,7907,1,regular beer (4.5% ABV),0,1,non-alcoholic beer (0.0% ABV),0,1,or,0,1,Click on the answer of your choice,0,1,Which option would you prefer right NOW?,0,0,0,0
51121,9:59:13,927227017,82,5.0.14.0,1,2,start,check_beer,0,500,0,0,beer,0,8074,1,You chose regular beer.       Please confirm your choice by again clicking on your chosen option.,1,1,regular beer (4.5% ABV),1,1,non-alcoholic beer (0.0% ABV),1,1,or,1,1,Click on the answer of your choice,1,1,Which option would you prefer right NOW?,1
51121,9:59:13,927227017,82,5.0.14.0,1,4,start,trial_e,0,500,0,0,beer,1,8384,1,regular beer (4.5% ABV),0,1,non-alcoholic beer (0.0% ABV)       and £ 1,0,1,Click on the answer of your choice,0,1,or,0,1,Which option would you prefer right NOW?,0,1,regular beer (4.5% ABV),8384
51121,9:59:13,927227017,82,5.0.14.0,1,5,start,trial_e,0,500,0,0,beer,1,6646,1,regular beer (4.5% ABV),0,1,non-alcoholic beer (0.0% ABV)       and £ 1.1,0,1,Click on the answer of your choice,0,1,or,0,1,Which option would you prefer right NOW?,0,1,regular beer (4.5% ABV),6647
51121,9:59:13,927227017,82,5.0.14.0,1,6,start,trial_e,0,500,0,0,beer,1,1298,1,regular beer (4.5% ABV),0,1,non-alcoholic beer (0.0% ABV)       and £ 1.3,0,1,Click on the answer of your choice,0,1,or,0,1,Which option would you prefer right NOW?,0,1,regular beer (4.5% ABV),1299
51121,9:59:13,927227017,82,5.0.14.0,1,7,start,trial_e,0,500,0,0,beer,1,704,1,regular beer (4.5% ABV),0,1,non-alcoholic beer (0.0% ABV)       and £ 1.8,0,1,Click on the answer of your choice,0,1,or,0,1,Which option would you prefer right NOW?,0,1,regular beer (4.5% ABV),705
51121,9:59:13,927227017,82,5.0.14.0,1,8,start,trial_e,0,500,0,0,beer,1,786,1,regular beer (4.5% ABV),0,1,non-alcoholic beer (0.0% ABV)       and £ 1.85,0,1,Click on the answer of your choice,0,1,or,0,1,Which option would you prefer right NOW?,0,1,regular beer (4.5% ABV),786
51121,9:59:13,927227017,82,5.0.14.0,1,9,start,trial_e,0,500,0,0,beer,1,538,1,regular beer (4.5% ABV),0,1,non-alcoholic beer (0.0% ABV)       and £ 2.05,0,1,Click on the answer of your choice,0,1,or,0,1,Which option would you prefer right NOW?,0,1,regular beer (4.5% ABV),539
51121,9:59:13,927227017,82,5.0.14.0,1,10,start,trial_e,0,500,0,0,beer,1,7385,1,regular beer (4.5% ABV),0,1,non-alcoholic beer (0.0% ABV)       and £ 2.1,0,1,Click on the answer of your choice,0,1,or,0,1,Which option would you prefer right NOW?,0,1,regular beer (4.5% ABV),7386
51121,9:59:13,927227017,82,5.0.14.0,1,11,start,trial_e,0,500,0,0,beer,1,626,1,regular beer (4.5% ABV),0,1,non-alcoholic beer (0.0% ABV)       and £ 2.6,0,1,Click on the answer of your choice,0,1,or,0,1,Which option would you prefer right NOW?,0,1,regular beer (4.5% ABV),626
51121,9:59:13,927227017,82,5.0.14.0,1,12,start,trial_e,0,500,0,0,beer,1,410,1,regular beer (4.5% ABV),0,1,non-alcoholic beer (0.0% ABV)       and £ 3.6,0,1,Click on the answer of your choice,0,1,or,0,1,Which option would you prefer right NOW?,0,1,regular beer (4.5% ABV),411
51121,9:59:13,927227017,82,5.0.14.0,1,13,start,trial_e,0,500,0,0,beer,1,1218,1,regular beer (4.5% ABV),0,1,non-alcoholic beer (0.0% ABV)       and £ 3.7,0,1,Click on the answer of your choice,0,1,or,0,1,Which option would you prefer right NOW?,0,1,regular beer (4.5% ABV),1218
51121,9:59:13,927227017,82,5.0.14.0,1,14,start,trial_e,0,500,0,0,beer,1,834,1,regular beer (4.5% ABV),0,1,non-alcoholic beer (0.0% ABV)       and £ 3.75,0,1,Click on the answer of your choice,0,1,or,0,1,Which option would you prefer right NOW?,0,1,regular beer (4.5% ABV),835
51121,9:59:13,927227017,82,5.0.14.0,1,15,start,trial_e,0,500,0,0,beer,1,633,1,regular beer (4.5% ABV),0,1,non-alcoholic beer (0.0% ABV)       and £ 4.25,0,1,Click on the answer of your choice,0,1,or,0,1,Which option would you prefer right NOW?,0,1,regular beer (4.5% ABV),633
51121,9:59:13,927227017,82,5.0.14.0,1,16,start,trial_e,0,500,0,0,beer,1,505,1,regular beer (4.5% ABV),0,1,non-alcoholic beer (0.0% ABV)       and £ 4.45,0,1,Click on the answer of your choice,0,1,or,0,1,Which option would you prefer right NOW?,0,1,regular beer (4.5% ABV),506
51121,9:59:13,927227017,82,5.0.14.0,1,17,start,trial_e,0,500,0,0,beer,1,874,1,regular beer (4.5% ABV),0,1,non-alcoholic beer (0.0% ABV)       and £ 5.45,0,1,Click on the answer of your choice,0,1,or,0,1,Which option would you prefer right NOW?,0,1,regular beer (4.5% ABV),875
51121,9:59:13,927227017,82,5.0.14.0,1,18,start,trial_e,0,500,0,0,beer,1,754,1,regular beer (4.5% ABV),0,1,non-alcoholic beer (0.0% ABV)       and £ 5.55,0,1,Click on the answer of your choice,0,1,or,0,1,Which option would you prefer right NOW?,0,1,regular beer (4.5% ABV),755
51121,9:59:13,927227017,82,5.0.14.0,1,19,start,trial_e,0,500,0,0,beer,1,841,1,regular beer (4.5% ABV),0,1,non-alcoholic beer (0.0% ABV)       and £ 5.65,0,1,Click on the answer of your choice,0,1,or,0,1,Which option would you prefer right NOW?,0,1,regular beer (4.5% ABV),842
51121,9:59:13,927227017,82,5.0.14.0,1,20,start,trial_e,0,500,0,0,beer,1,706,1,regular beer (4.5% ABV),0,1,non-alcoholic beer (0.0% ABV)       and £ 6.65,0,1,Click on the answer of your choice,0,1,or,0,1,Which option would you prefer right NOW?,0,1,regular beer (4.5% ABV),706
51121,9:59:13,927227017,82,5.0.14.0,1,21,start,trial_e,0,500,0,0,beer,1,1314,1,regular beer (4.5% ABV),9,1,non-alcoholic beer (0.0% ABV)       and £ 6.7,9,1,Click on the answer of your choice,9,1,or,9,1,Which option would you prefer right NOW?,9,1,regular beer (4.5% ABV),1314
51121,9:59:13,927227017,82,5.0.14.0,1,22,start,trial_e,0,500,0,0,beer,1,9265,1,regular beer (4.5% ABV),0,1,non-alcoholic beer (0.0% ABV)       and £ 7.2,0,1,Click on the answer of your choice,0,1,or,0,1,Which option would you prefer right NOW?,0,1,regular beer (4.5% ABV),9266
51121,9:59:13,927227017,82,5.0.14.0,1,23,start,trial_e,0,500,0,0,beer,1,1147,1,regular beer (4.5% ABV),0,1,non-alcoholic beer (0.0% ABV)       and £ 7.4,0,1,Click on the answer of your choice,0,1,or,0,1,Which option would you prefer right NOW?,0,1,regular beer (4.5% ABV),1147
51121,9:59:13,927227017,82,5.0.14.0,1,24,start,trial_e,0,500,0,0,beer,1,2089,1,regular beer (4.5% ABV),0,1,non-alcoholic beer (0.0% ABV)       and £ 7.5,0,1,Click on the answer of your choice,0,1,or,0,1,Which option would you prefer right NOW?,0,1,regular beer (4.5% ABV),2090
51121,9:59:13,927227017,82,5.0.14.0,1,25,start,trial_e,0,500,0,0,beer,1,795,1,regular beer (4.5% ABV),0,1,non-alcoholic beer (0.0% ABV)       and £ 7.7,0,1,Click on the answer of your choice,0,1,or,0,1,Which option would you prefer right NOW?,0,1,regular beer (4.5% ABV),795
51121,9:59:13,927227017,82,5.0.14.0,1,26,start,trial_e,0,500,0,0,beer,1,3233,1,regular beer (4.5% ABV),0,1,non-alcoholic beer (0.0% ABV)       and £ 8.7,0,1,Click on the answer of your choice,0,1,or,0,1,Which option would you prefer right NOW?,0,1,regular beer (4.5% ABV),3233
51121,9:59:13,927227017,82,5.0.14.0,1,27,start,trial_e,0,500,0,0,beer,1,929,1,regular beer (4.5% ABV),0,1,non-alcoholic beer (0.0% ABV)       and £ 8.75,0,1,Click on the answer of your choice,0,1,or,0,1,Which option would you prefer right NOW?,0,1,regular beer (4.5% ABV),930
51121,9:59:13,927227017,82,5.0.14.0,1,28,start,trial_e,0,500,0,0,beer,1,819,1,regular beer (4.5% ABV),0,1,non-alcoholic beer (0.0% ABV)       and £ 9.25,0,1,Click on the answer of your choice,0,1,or,0,1,Which option would you prefer right NOW?,0,1,regular beer (4.5% ABV),819
51121,9:59:13,927227017,82,5.0.14.0,1,29,start,trial_e,0,500,0,0,beer,1,782,1,regular beer (4.5% ABV),0,1,non-alcoholic beer (0.0% ABV)       and £ 9.35,0,1,Click on the answer of your choice,0,1,or,0,1,Which option would you prefer right NOW?,0,1,regular beer (4.5% ABV),783
51121,9:59:13,927227017,82,5.0.14.0,1,30,start,trial_e,0,500,0,0,beer,1,744,1,regular beer (4.5% ABV),0,1,non-alcoholic beer (0.0% ABV)       and £ 9.4,0,1,Click on the answer of your choice,0,1,or,0,1,Which option would you prefer right NOW?,0,1,regular beer (4.5% ABV),744
51121,9:59:13,927227017,82,5.0.14.0,1,31,start,trial_e,0,500,0,0,beer,1,634,1,regular beer (4.5% ABV),0,1,non-alcoholic beer (0.0% ABV)       and £ 10.4,0,1,Click on the answer of your choice,0,1,or,0,1,Which option would you prefer right NOW?,0,1,regular beer (4.5% ABV),634
51121,7:03:41,680045565,79,5.0.14.0,1,1,start,base_q,0,500,0,0,beer,0,17602,1,regular beer (4.5% ABV),0,1,non-alcoholic beer (0.0% ABV),0,1,or,0,1,Click on the answer of your choice,0,1,Which option would you prefer right NOW?,0,0,0,0
51121,7:03:41,680045565,79,5.0.14.0,1,2,start,check_beer,0,500,0,0,beer,0,1287,1,You chose regular beer.       Please confirm your choice by again clicking on your chosen option.,0,1,regular beer (4.5% ABV),0,1,non-alcoholic beer (0.0% ABV),0,1,or,0,1,Click on the answer of your choice,0,1,Which option would you prefer right NOW?,0
51121,7:03:41,680045565,79,5.0.14.0,1,4,start,trial_e,0,500,0,0,beer,1,48961,1,regular beer (4.5% ABV),0,1,non-alcoholic beer (0.0% ABV)       and £ 0.5,0,1,Click on the answer of your choice,0,1,or,0,1,Which option would you prefer right NOW?,0,1,regular beer (4.5% ABV),48962
51121,7:03:41,680045565,79,5.0.14.0,1,5,start,trial_e,0,500,0,0,beer,1,21886,1,regular beer (4.5% ABV),0,1,non-alcoholic beer (0.0% ABV)       and £ 1.5,0,1,Click on the answer of your choice,0,1,or,0,1,Which option would you prefer right NOW?,0,1,regular beer (4.5% ABV),21888
51121,7:03:41,680045565,79,5.0.14.0,1,6,start,trial_e,0,500,0,0,beer,1,3666,1,regular beer (4.5% ABV),0,1,non-alcoholic beer (0.0% ABV)       and £ 1.6,0,1,Click on the answer of your choice,0,1,or,0,1,Which option would you prefer right NOW?,0,1,regular beer (4.5% ABV),3667
51121,7:03:41,680045565,79,5.0.14.0,1,7,start,trial_e,0,500,0,0,beer,1,2490,1,regular beer (4.5% ABV),0,1,non-alcoholic beer (0.0% ABV)       and £ 1.65,0,1,Click on the answer of your choice,0,1,or,0,1,Which option would you prefer right NOW?,0,1,regular beer (4.5% ABV),2490
51121,7:03:41,680045565,79,5.0.14.0,1,8,start,trial_e,0,500,0,0,beer,1,4843,1,regular beer (4.5% ABV),0,1,non-alcoholic beer (0.0% ABV)       and £ 1.85,0,1,Click on the answer of your choice,0,1,or,0,1,Which option would you prefer right NOW?,0,1,regular beer (4.5% ABV),4844
51121,7:03:41,680045565,79,5.0.14.0,1,9,start,trial_e,0,500,0,0,beer,1,3681,1,regular beer (4.5% ABV),0,1,non-alcoholic beer (0.0% ABV)       and £ 2.05,0,1,Click on the answer of your choice,0,1,or,0,1,Which option would you prefer right NOW?,0,1,regular beer (4.5% ABV),3681
51121,7:03:41,680045565,79,5.0.14.0,1,10,start,trial_e,0,500,0,0,beer,1,2155,1,regular beer (4.5% ABV),0,1,non-alcoholic beer (0.0% ABV)       and £ 2.1,0,1,Click on the answer of your choice,0,1,or,0,1,Which option would you prefer right NOW?,0,1,regular beer (4.5% ABV),2155
51121,7:03:41,680045565,79,5.0.14.0,1,11,start,trial_e,0,500,0,0,beer,1,1738,1,regular beer (4.5% ABV),0,1,non-alcoholic beer (0.0% ABV)       and £ 2.2,0,1,Click on the answer of your choice,0,1,or,0,1,Which option would you prefer right NOW?,0,1,regular beer (4.5% ABV),1739
51121,7:03:41,680045565,79,5.0.14.0,1,12,start,trial_e,0,500,0,0,beer,1,1611,1,regular beer (4.5% ABV),0,1,non-alcoholic beer (0.0% ABV)       and £ 3.2,0,1,Click on the answer of your choice,0,1,or,0,1,Which option would you prefer right NOW?,0,1,regular beer (4.5% ABV),1611
51121,7:03:41,680045565,79,5.0.14.0,1,13,start,trial_e,0,500,0,0,beer,1,1825,1,regular beer (4.5% ABV),0,1,non-alcoholic beer (0.0% ABV)       and £ 3.7,0,1,Click on the answer of your choice,0,1,or,0,1,Which option would you prefer right NOW?,0,1,regular beer (4.5% ABV),1826
51121,7:03:41,680045565,79,5.0.14.0,1,14,start,trial_e,0,500,0,0,NA,0,7708,1,regular beer (4.5% ABV),0,1,non-alcoholic beer (0.0% ABV)       and £ 3.75,0,1,Click on the answer of your choice,0,1,or,0,1,Which option would you prefer right NOW?,0,1,regular beer (4.5% ABV),7709
51121,7:03:41,680045565,79,5.0.14.0,1,15,start,check_finalE,0,500,0,0,NA,1,20661,1,You chose non-alcoholic beer.       Please confirm your choice by again clicking on your chosen option.,0,1,regular beer (4.5% ABV),0,1,non-alcoholic beer (0.0% ABV)       and £ 3.75,0,1,or,0,1,Click on the answer of your choice,0,1,Which option would you prefer right NOW?,0
51121,9:05:34,811246138,99,5.0.14.0,1,1,start,base_q,0,500,0,0,beer,0,25112,1,regular beer (4.5% ABV),0,1,non-alcoholic beer (0.0% ABV),0,1,or,0,1,Click on the answer of your choice,0,1,Which option would you prefer right NOW?,0,0,0,0
51121,9:05:34,811246138,99,5.0.14.0,1,2,start,check_beer,0,500,0,0,beer,0,14295,1,You chose regular beer.       Please confirm your choice by again clicking on your chosen option.,0,1,regular beer (4.5% ABV),0,1,non-alcoholic beer (0.0% ABV),0,1,or,0,1,Click on the answer of your choice,0,1,Which option would you prefer right NOW?,0
51121,9:05:34,811246138,99,5.0.14.0,1,4,start,trial_e,0,500,0,0,beer,1,21042,1,regular beer (4.5% ABV),0,1,non-alcoholic beer (0.0% ABV)       and £ 1,0,1,Click on the answer of your choice,0,1,or,0,1,Which option would you prefer right NOW?,0,1,regular beer (4.5% ABV),21044
51121,9:05:34,811246138,99,5.0.14.0,1,5,start,trial_e,0,500,0,0,beer,1,1539,1,regular beer (4.5% ABV),4,1,non-alcoholic beer (0.0% ABV)       and £ 1.5,4,1,Click on the answer of your choice,4,1,or,4,1,Which option would you prefer right NOW?,4,1,regular beer (4.5% ABV),1540
51121,9:05:34,811246138,99,5.0.14.0,1,6,start,trial_e,0,500,0,0,beer,1,2693,1,regular beer (4.5% ABV),1,1,non-alcoholic beer (0.0% ABV)       and £ 1.7,1,1,Click on the answer of your choice,1,1,or,1,1,Which option would you prefer right NOW?,1,1,regular beer (4.5% ABV),2694
51121,9:05:34,811246138,99,5.0.14.0,1,7,start,trial_e,0,500,0,0,beer,1,25847,1,regular beer (4.5% ABV),0,1,non-alcoholic beer (0.0% ABV)       and £ 1.8,0,1,Click on the answer of your choice,0,1,or,0,1,Which option would you prefer right NOW?,0,1,regular beer (4.5% ABV),25848
51121,9:05:34,811246138,99,5.0.14.0,1,8,start,trial_e,0,500,0,0,beer,1,2180,1,regular beer (4.5% ABV),1,1,non-alcoholic beer (0.0% ABV)       and £ 1.85,1,1,Click on the answer of your choice,1,1,or,1,1,Which option would you prefer right NOW?,1,1,regular beer (4.5% ABV),2183
51121,9:05:34,811246138,99,5.0.14.0,1,9,start,trial_e,0,500,0,0,beer,1,1281,1,regular beer (4.5% ABV),0,1,non-alcoholic beer (0.0% ABV)       and £ 2.35,0,1,Click on the answer of your choice,0,1,or,0,1,Which option would you prefer right NOW?,0,1,regular beer (4.5% ABV),1282
51121,9:05:34,811246138,99,5.0.14.0,1,10,start,trial_e,0,500,0,0,beer,1,1084,1,regular beer (4.5% ABV),1,1,non-alcoholic beer (0.0% ABV)       and £ 3.35,1,1,Click on the answer of your choice,1,1,or,1,1,Which option would you prefer right NOW?,1,1,regular beer (4.5% ABV),1085
51121,9:05:34,811246138,99,5.0.14.0,1,11,start,trial_e,0,500,0,0,beer,1,956,1,regular beer (4.5% ABV),0,1,non-alcoholic beer (0.0% ABV)       and £ 3.55,0,1,Click on the answer of your choice,0,1,or,0,1,Which option would you prefer right NOW?,0,1,regular beer (4.5% ABV),959
51121,9:05:34,811246138,99,5.0.14.0,1,12,start,trial_e,0,500,0,0,beer,1,818,1,regular beer (4.5% ABV),40,1,non-alcoholic beer (0.0% ABV)       and £ 3.65,40,1,Click on the answer of your choice,40,1,or,40,1,Which option would you prefer right NOW?,40,1,regular beer (4.5% ABV),819
51121,9:05:34,811246138,99,5.0.14.0,1,13,start,trial_e,0,500,0,0,beer,1,547,1,regular beer (4.5% ABV),3,1,non-alcoholic beer (0.0% ABV)       and £ 3.7,3,1,Click on the answer of your choice,3,1,or,3,1,Which option would you prefer right NOW?,3,1,regular beer (4.5% ABV),547
51121,9:05:34,811246138,99,5.0.14.0,1,14,start,trial_e,0,500,0,0,beer,1,1922,1,regular beer (4.5% ABV),1,1,non-alcoholic beer (0.0% ABV)       and £ 4.2,1,1,Click on the answer of your choice,1,1,or,1,1,Which option would you prefer right NOW?,1,1,regular beer (4.5% ABV),1963
51121,9:05:34,811246138,99,5.0.14.0,1,15,start,trial_e,0,500,0,0,beer,1,15707,1,regular beer (4.5% ABV),0,1,non-alcoholic beer (0.0% ABV)       and £ 4.4,0,1,Click on the answer of your choice,0,1,or,0,1,Which option would you prefer right NOW?,0,1,regular beer (4.5% ABV),15707
51121,9:05:34,811246138,99,5.0.14.0,1,16,start,trial_e,0,500,0,0,beer,1,3953,1,regular beer (4.5% ABV),0,1,non-alcoholic beer (0.0% ABV)       and £ 4.5,0,1,Click on the answer of your choice,0,1,or,0,1,Which option would you prefer right NOW?,0,1,regular beer (4.5% ABV),3954
51121,9:05:34,811246138,99,5.0.14.0,1,17,start,trial_e,0,500,0,0,beer,1,1555,1,regular beer (4.5% ABV),0,1,non-alcoholic beer (0.0% ABV)       and £ 5.5,0,1,Click on the answer of your choice,0,1,or,0,1,Which option would you prefer right NOW?,0,1,regular beer (4.5% ABV),1556
51121,9:05:34,811246138,99,5.0.14.0,1,18,start,trial_e,0,500,0,0,beer,1,1139,1,regular beer (4.5% ABV),0,1,non-alcoholic beer (0.0% ABV)       and £ 5.55,0,1,Click on the answer of your choice,0,1,or,0,1,Which option would you prefer right NOW?,0,1,regular beer (4.5% ABV),1140
51121,9:05:34,811246138,99,5.0.14.0,1,19,start,trial_e,0,500,0,0,beer,1,851,1,regular beer (4.5% ABV),1,1,non-alcoholic beer (0.0% ABV)       and £ 6.05,1,1,Click on the answer of your choice,1,1,or,1,1,Which option would you prefer right NOW?,1,1,regular beer (4.5% ABV),852
51121,9:05:34,811246138,99,5.0.14.0,1,20,start,trial_e,0,500,0,0,beer,1,1850,1,regular beer (4.5% ABV),1,1,non-alcoholic beer (0.0% ABV)       and £ 7.05,1,1,Click on the answer of your choice,1,1,or,1,1,Which option would you prefer right NOW?,1,1,regular beer (4.5% ABV),1851
51121,9:05:34,811246138,99,5.0.14.0,1,21,start,trial_e,0,500,0,0,beer,1,1350,1,regular beer (4.5% ABV),4,1,non-alcoholic beer (0.0% ABV)       and £ 7.15,4,1,Click on the answer of your choice,4,1,or,4,1,Which option would you prefer right NOW?,4,1,regular beer (4.5% ABV),1350
51121,9:05:34,811246138,99,5.0.14.0,1,22,start,trial_e,0,500,0,0,beer,1,1230,1,regular beer (4.5% ABV),15,1,non-alcoholic beer (0.0% ABV)       and £ 7.2,15,1,Click on the answer of your choice,15,1,or,15,1,Which option would you prefer right NOW?,15,1,regular beer (4.5% ABV),1232
51121,9:05:34,811246138,99,5.0.14.0,1,23,start,trial_e,0,500,0,0,beer,1,650,1,regular beer (4.5% ABV),1,1,non-alcoholic beer (0.0% ABV)       and £ 7.4,1,1,Click on the answer of your choice,1,1,or,1,1,Which option would you prefer right NOW?,1,1,regular beer (4.5% ABV),651
51121,9:05:34,811246138,99,5.0.14.0,1,24,start,trial_e,0,500,0,0,beer,1,1072,1,regular beer (4.5% ABV),1,1,non-alcoholic beer (0.0% ABV)       and £ 7.45,1,1,Click on the answer of your choice,1,1,or,1,1,Which option would you prefer right NOW?,1,1,regular beer (4.5% ABV),1073
51121,9:05:34,811246138,99,5.0.14.0,1,25,start,trial_e,0,500,0,0,beer,1,2262,1,regular beer (4.5% ABV),4,1,non-alcoholic beer (0.0% ABV)       and £ 8.45,4,1,Click on the answer of your choice,4,1,or,4,1,Which option would you prefer right NOW?,4,1,regular beer (4.5% ABV),2262
51121,9:05:34,811246138,99,5.0.14.0,1,26,start,trial_e,0,500,0,0,beer,1,1137,1,regular beer (4.5% ABV),0,1,non-alcoholic beer (0.0% ABV)       and £ 8.55,0,1,Click on the answer of your choice,0,1,or,0,1,Which option would you prefer right NOW?,0,1,regular beer (4.5% ABV),1138
51121,9:05:34,811246138,99,5.0.14.0,1,27,start,trial_e,0,500,0,0,beer,1,1389,1,regular beer (4.5% ABV),1,1,non-alcoholic beer (0.0% ABV)       and £ 9.05,1,1,Click on the answer of your choice,1,1,or,1,1,Which option would you prefer right NOW?,1,1,regular beer (4.5% ABV),1390
51121,9:05:34,811246138,99,5.0.14.0,1,28,start,trial_e,0,500,0,0,beer,1,1047,1,regular beer (4.5% ABV),2,1,non-alcoholic beer (0.0% ABV)       and £ 9.25,2,1,Click on the answer of your choice,2,1,or,2,1,Which option would you prefer right NOW?,2,1,regular beer (4.5% ABV),1048
51121,9:05:34,811246138,99,5.0.14.0,1,29,start,trial_e,0,500,0,0,beer,1,1121,1,regular beer (4.5% ABV),11,1,non-alcoholic beer (0.0% ABV)       and £ 10.25,11,1,Click on the answer of your choice,11,1,or,11,1,Which option would you prefer right NOW?,11,1,regular beer (4.5% ABV),1122
51121,9:06:21,247056292,104,5.0.14.0,1,1,start,base_q,0,500,0,0,beer,0,20619,1,regular beer (4.5% ABV),0,1,non-alcoholic beer (0.0% ABV),0,1,or,0,1,Click on the answer of your choice,0,1,Which option would you prefer right NOW?,0,0,0,0
51121,9:06:21,247056292,104,5.0.14.0,1,2,start,check_beer,0,500,0,0,beer,0,2919,1,You chose regular beer.       Please confirm your choice by again clicking on your chosen option.,0,1,regular beer (4.5% ABV),0,1,non-alcoholic beer (0.0% ABV),0,1,or,0,1,Click on the answer of your choice,0,1,Which option would you prefer right NOW?,0
51121,9:06:21,247056292,104,5.0.14.0,1,4,start,trial_e,0,500,0,0,NA,0,39,1,regular beer (4.5% ABV),0,1,non-alcoholic beer (0.0% ABV)       and £ 0.2,0,1,Click on the answer of your choice,0,1,or,0,1,Which option would you prefer right NOW?,0,1,regular beer (4.5% ABV),40
51121,9:06:21,247056292,104,5.0.14.0,1,5,start,check_finalE,0,500,0,0,beer,0,15683,1,You chose non-alcoholic beer.       Please confirm your choice by again clicking on your chosen option.,0,1,regular beer (4.5% ABV),0,1,non-alcoholic beer (0.0% ABV)       and £ 0.2,0,1,or,0,1,Click on the answer of your choice,0,1,Which option would you prefer right NOW?,0
51121,9:06:21,247056292,104,5.0.14.0,1,6,start,trial_e,0,500,0,0,beer,1,2005,1,regular beer (4.5% ABV),0,1,non-alcoholic beer (0.0% ABV)       and £ 0.25,0,1,Click on the answer of your choice,0,1,or,0,1,Which option would you prefer right NOW?,0,1,regular beer (4.5% ABV),2006
51121,9:06:21,247056292,104,5.0.14.0,1,7,start,trial_e,0,500,0,0,beer,1,2524,1,regular beer (4.5% ABV),2,1,non-alcoholic beer (0.0% ABV)       and £ 0.75,2,1,Click on the answer of your choice,2,1,or,2,1,Which option would you prefer right NOW?,2,1,regular beer (4.5% ABV),2524
51121,9:06:21,247056292,104,5.0.14.0,1,8,start,trial_e,0,500,0,0,beer,1,7444,1,regular beer (4.5% ABV),0,1,non-alcoholic beer (0.0% ABV)       and £ 1.75,0,1,Click on the answer of your choice,0,1,or,0,1,Which option would you prefer right NOW?,0,1,regular beer (4.5% ABV),7445
51121,9:06:21,247056292,104,5.0.14.0,1,9,start,trial_e,0,500,0,0,beer,1,2115,1,regular beer (4.5% ABV),0,1,non-alcoholic beer (0.0% ABV)       and £ 1.85,0,1,Click on the answer of your choice,0,1,or,0,1,Which option would you prefer right NOW?,0,1,regular beer (4.5% ABV),2116
51121,9:06:21,247056292,104,5.0.14.0,1,10,start,trial_e,0,500,0,0,beer,1,999,1,regular beer (4.5% ABV),0,1,non-alcoholic beer (0.0% ABV)       and £ 2.05,0,1,Click on the answer of your choice,0,1,or,0,1,Which option would you prefer right NOW?,0,1,regular beer (4.5% ABV),999
51121,9:06:21,247056292,104,5.0.14.0,1,11,start,trial_e,0,500,0,0,beer,1,9619,1,regular beer (4.5% ABV),1,1,non-alcoholic beer (0.0% ABV)       and £ 2.15,1,1,Click on the answer of your choice,1,1,or,1,1,Which option would you prefer right NOW?,1,1,regular beer (4.5% ABV),9619
51121,9:06:21,247056292,104,5.0.14.0,1,12,start,trial_e,0,500,0,0,beer,1,866,1,regular beer (4.5% ABV),0,1,non-alcoholic beer (0.0% ABV)       and £ 2.65,0,1,Click on the answer of your choice,0,1,or,0,1,Which option would you prefer right NOW?,0,1,regular beer (4.5% ABV),869
51121,9:06:21,247056292,104,5.0.14.0,1,13,start,trial_e,0,500,0,0,beer,1,2312,1,regular beer (4.5% ABV),2,1,non-alcoholic beer (0.0% ABV)       and £ 3.65,2,1,Click on the answer of your choice,2,1,or,2,1,Which option would you prefer right NOW?,2,1,regular beer (4.5% ABV),2313
51121,9:06:21,247056292,104,5.0.14.0,1,14,start,trial_e,0,500,0,0,beer,1,4856,1,regular beer (4.5% ABV),1,1,non-alcoholic beer (0.0% ABV)       and £ 3.7,1,1,Click on the answer of your choice,1,1,or,1,1,Which option would you prefer right NOW?,1,1,regular beer (4.5% ABV),4857
51121,9:06:21,247056292,104,5.0.14.0,1,15,start,trial_e,0,500,0,0,NA,0,11600,1,regular beer (4.5% ABV),0,1,non-alcoholic beer (0.0% ABV)       and £ 3.75,0,1,Click on the answer of your choice,0,1,or,0,1,Which option would you prefer right NOW?,0,1,regular beer (4.5% ABV),11600
51121,9:06:21,247056292,104,5.0.14.0,1,16,start,check_finalE,0,500,0,0,NA,1,42583,1,You chose non-alcoholic beer.       Please confirm your choice by again clicking on your chosen option.,0,1,regular beer (4.5% ABV),0,1,non-alcoholic beer (0.0% ABV)       and £ 3.75,0,1,or,0,1,Click on the answer of your choice,0,1,Which option would you prefer right NOW?,0
51121,10:10:17,163974413,110,5.0.14.0,1,1,start,base_q,0,500,0,0,beer,0,17068,1,regular beer (4.5% ABV),9,1,non-alcoholic beer (0.0% ABV),9,1,or,9,1,Click on the answer of your choice,9,1,Which option would you prefer right NOW?,9,0,0,0
51121,10:10:17,163974413,110,5.0.14.0,1,2,start,check_beer,0,500,0,0,beer,0,1640,1,You chose regular beer.       Please confirm your choice by again clicking on your chosen option.,6,1,regular beer (4.5% ABV),6,1,non-alcoholic beer (0.0% ABV),6,1,or,6,1,Click on the answer of your choice,6,1,Which option would you prefer right NOW?,6
51121,10:10:17,163974413,110,5.0.14.0,1,4,start,trial_e,0,500,0,0,beer,1,2797,1,regular beer (4.5% ABV),4,1,non-alcoholic beer (0.0% ABV)       and £ 0.1,4,1,Click on the answer of your choice,4,1,or,4,1,Which option would you prefer right NOW?,4,1,regular beer (4.5% ABV),2801
51121,10:10:17,163974413,110,5.0.14.0,1,5,start,trial_e,0,500,0,0,beer,1,1249,1,regular beer (4.5% ABV),4,1,non-alcoholic beer (0.0% ABV)       and £ 0.3,4,1,Click on the answer of your choice,4,1,or,4,1,Which option would you prefer right NOW?,4,1,regular beer (4.5% ABV),1253
51121,10:10:17,163974413,110,5.0.14.0,1,6,start,trial_e,0,500,0,0,beer,1,673,1,regular beer (4.5% ABV),4,1,non-alcoholic beer (0.0% ABV)       and £ 0.8,4,1,Click on the answer of your choice,4,1,or,4,1,Which option would you prefer right NOW?,4,1,regular beer (4.5% ABV),678
51121,10:10:17,163974413,110,5.0.14.0,1,7,start,trial_e,0,500,0,0,beer,1,449,1,regular beer (4.5% ABV),4,1,non-alcoholic beer (0.0% ABV)       and £ 0.85,4,1,Click on the answer of your choice,4,1,or,4,1,Which option would you prefer right NOW?,4,1,regular beer (4.5% ABV),453
51121,10:10:17,163974413,110,5.0.14.0,1,8,start,trial_e,0,500,0,0,beer,1,376,1,regular beer (4.5% ABV),4,1,non-alcoholic beer (0.0% ABV)       and £ 1.85,4,1,Click on the answer of your choice,4,1,or,4,1,Which option would you prefer right NOW?,4,1,regular beer (4.5% ABV),381
51121,10:10:17,163974413,110,5.0.14.0,1,9,start,trial_e,0,500,0,0,beer,1,1569,1,regular beer (4.5% ABV),4,1,non-alcoholic beer (0.0% ABV)       and £ 2.85,4,1,Click on the answer of your choice,4,1,or,4,1,Which option would you prefer right NOW?,4,1,regular beer (4.5% ABV),1574
51121,10:10:17,163974413,110,5.0.14.0,1,10,start,trial_e,0,500,0,0,beer,1,745,1,regular beer (4.5% ABV),4,1,non-alcoholic beer (0.0% ABV)       and £ 2.95,4,1,Click on the answer of your choice,4,1,or,4,1,Which option would you prefer right NOW?,4,1,regular beer (4.5% ABV),750
51121,10:10:17,163974413,110,5.0.14.0,1,11,start,trial_e,0,500,0,0,beer,1,1131,1,regular beer (4.5% ABV),4,1,non-alcoholic beer (0.0% ABV)       and £ 3.45,4,1,Click on the answer of your choice,4,1,or,4,1,Which option would you prefer right NOW?,4,1,regular beer (4.5% ABV),1135
51121,10:10:17,163974413,110,5.0.14.0,1,12,start,trial_e,0,500,0,0,beer,1,936,1,regular beer (4.5% ABV),4,1,non-alcoholic beer (0.0% ABV)       and £ 3.65,4,1,Click on the answer of your choice,4,1,or,4,1,Which option would you prefer right NOW?,4,1,regular beer (4.5% ABV),940
51121,10:10:17,163974413,110,5.0.14.0,1,13,start,trial_e,0,500,0,0,beer,1,1642,1,regular beer (4.5% ABV),4,1,non-alcoholic beer (0.0% ABV)       and £ 3.7,4,1,Click on the answer of your choice,4,1,or,4,1,Which option would you prefer right NOW?,4,1,regular beer (4.5% ABV),1648
51121,10:10:17,163974413,110,5.0.14.0,1,14,start,trial_e,0,500,0,0,beer,1,1103,1,regular beer (4.5% ABV),5,1,non-alcoholic beer (0.0% ABV)       and £ 3.75,5,1,Click on the answer of your choice,5,1,or,5,1,Which option would you prefer right NOW?,5,1,regular beer (4.5% ABV),1107
51121,10:10:17,163974413,110,5.0.14.0,1,15,start,trial_e,0,500,0,0,beer,1,640,1,regular beer (4.5% ABV),4,1,non-alcoholic beer (0.0% ABV)       and £ 3.95,4,1,Click on the answer of your choice,4,1,or,4,1,Which option would you prefer right NOW?,4,1,regular beer (4.5% ABV),646
51121,10:10:17,163974413,110,5.0.14.0,1,16,start,trial_e,0,500,0,0,beer,1,531,1,regular beer (4.5% ABV),4,1,non-alcoholic beer (0.0% ABV)       and £ 4.05,4,1,Click on the answer of your choice,4,1,or,4,1,Which option would you prefer right NOW?,4,1,regular beer (4.5% ABV),535
51121,10:10:17,163974413,110,5.0.14.0,1,17,start,trial_e,0,500,0,0,beer,1,700,1,regular beer (4.5% ABV),4,1,non-alcoholic beer (0.0% ABV)       and £ 5.05,4,1,Click on the answer of your choice,4,1,or,4,1,Which option would you prefer right NOW?,4,1,regular beer (4.5% ABV),705
51121,10:10:17,163974413,110,5.0.14.0,1,18,start,trial_e,0,500,0,0,beer,1,1162,1,regular beer (4.5% ABV),4,1,non-alcoholic beer (0.0% ABV)       and £ 5.55,4,1,Click on the answer of your choice,4,1,or,4,1,Which option would you prefer right NOW?,4,1,regular beer (4.5% ABV),1166
51121,10:10:17,163974413,110,5.0.14.0,1,19,start,trial_e,0,500,0,0,beer,1,1373,1,regular beer (4.5% ABV),4,1,non-alcoholic beer (0.0% ABV)       and £ 5.65,4,1,Click on the answer of your choice,4,1,or,4,1,Which option would you prefer right NOW?,4,1,regular beer (4.5% ABV),1379
51121,10:10:17,163974413,110,5.0.14.0,1,20,start,trial_e,0,500,0,0,beer,1,1599,1,regular beer (4.5% ABV),4,1,non-alcoholic beer (0.0% ABV)       and £ 6.15,4,1,Click on the answer of your choice,4,1,or,4,1,Which option would you prefer right NOW?,4,1,regular beer (4.5% ABV),1604
51121,10:10:17,163974413,110,5.0.14.0,1,21,start,trial_e,0,500,0,0,beer,1,1100,1,regular beer (4.5% ABV),6,1,non-alcoholic beer (0.0% ABV)       and £ 6.2,6,1,Click on the answer of your choice,6,1,or,6,1,Which option would you prefer right NOW?,6,1,regular beer (4.5% ABV),1105
51121,10:10:17,163974413,110,5.0.14.0,1,22,start,trial_e,0,500,0,0,beer,1,1388,1,regular beer (4.5% ABV),10,1,non-alcoholic beer (0.0% ABV)       and £ 6.4,10,1,Click on the answer of your choice,10,1,or,10,1,Which option would you prefer right NOW?,10,1,regular beer (4.5% ABV),1393
51121,10:10:17,163974413,110,5.0.14.0,1,23,start,trial_e,0,500,0,0,beer,1,920,1,regular beer (4.5% ABV),4,1,non-alcoholic beer (0.0% ABV)       and £ 7.4,4,1,Click on the answer of your choice,4,1,or,4,1,Which option would you prefer right NOW?,4,1,regular beer (4.5% ABV),924
51121,10:10:17,163974413,110,5.0.14.0,1,24,start,trial_e,0,500,0,0,beer,1,855,1,regular beer (4.5% ABV),5,1,non-alcoholic beer (0.0% ABV)       and £ 7.9,5,1,Click on the answer of your choice,5,1,or,5,1,Which option would you prefer right NOW?,5,1,regular beer (4.5% ABV),859
51121,10:10:17,163974413,110,5.0.14.0,1,25,start,trial_e,0,500,0,0,beer,1,643,1,regular beer (4.5% ABV),4,1,non-alcoholic beer (0.0% ABV)       and £ 8.9,4,1,Click on the answer of your choice,4,1,or,4,1,Which option would you prefer right NOW?,4,1,regular beer (4.5% ABV),648
51121,10:10:17,163974413,110,5.0.14.0,1,26,start,trial_e,0,500,0,0,beer,1,1347,1,regular beer (4.5% ABV),4,1,non-alcoholic beer (0.0% ABV)       and £ 9.1,4,1,Click on the answer of your choice,4,1,or,4,1,Which option would you prefer right NOW?,4,1,regular beer (4.5% ABV),1352
51121,10:10:17,163974413,110,5.0.14.0,1,27,start,trial_e,0,500,0,0,beer,1,1418,1,regular beer (4.5% ABV),5,1,non-alcoholic beer (0.0% ABV)       and £ 9.15,5,1,Click on the answer of your choice,5,1,or,5,1,Which option would you prefer right NOW?,5,1,regular beer (4.5% ABV),1423
51121,10:10:17,163974413,110,5.0.14.0,1,28,start,trial_e,0,500,0,0,beer,1,1737,1,regular beer (4.5% ABV),4,1,non-alcoholic beer (0.0% ABV)       and £ 9.25,4,1,Click on the answer of your choice,4,1,or,4,1,Which option would you prefer right NOW?,4,1,regular beer (4.5% ABV),1741
51121,10:10:17,163974413,110,5.0.14.0,1,29,start,trial_e,0,500,0,0,beer,1,504,1,regular beer (4.5% ABV),4,1,non-alcoholic beer (0.0% ABV)       and £ 9.35,4,1,Click on the answer of your choice,4,1,or,4,1,Which option would you prefer right NOW?,4,1,regular beer (4.5% ABV),507
51121,10:10:17,163974413,110,5.0.14.0,1,30,start,trial_e,0,500,0,0,beer,1,1482,1,regular beer (4.5% ABV),4,1,non-alcoholic beer (0.0% ABV)       and £ 9.85,4,1,Click on the answer of your choice,4,1,or,4,1,Which option would you prefer right NOW?,4,1,regular beer (4.5% ABV),1495
51121,10:10:17,163974413,110,5.0.14.0,1,31,start,trial_e,0,500,0,0,beer,1,1492,1,regular beer (4.5% ABV),4,1,non-alcoholic beer (0.0% ABV)       and £ 10.05,4,1,Click on the answer of your choice,4,1,or,4,1,Which option would you prefer right NOW?,4,1,regular beer (4.5% ABV),1493
51121,10:12:55,916221930,132,5.0.14.0,1,1,start,base_q,0,500,0,0,NA_n,0,1864,1,regular beer (4.5% ABV),1,1,non-alcoholic beer (0.0% ABV),1,1,or,1,1,Click on the answer of your choice,1,1,Which option would you prefer right NOW?,1,0,0,0
51121,10:12:55,916221930,132,5.0.14.0,1,2,start,check_NA,0,500,0,0,NA_n,0,849,1,You chose non-alcoholic beer.       Please confirm your choice by again clicking on your chosen option.,0,1,regular beer (4.5% ABV),0,1,non-alcoholic beer (0.0% ABV),0,1,or,0,1,Click on the answer of your choice,0,1,Which option would you prefer right NOW?,0
51121,10:12:55,916221930,132,5.0.14.0,1,3,start,trial_n,0,500,0,0,NA_n,1,906,1,regular beer (4.5% ABV)       and £ 0.05,0,1,non-alcoholic beer (0.0% ABV),0,1,Click on the answer of your choice,0,1,or,0,1,Which option would you prefer right NOW?,0,1,regular beer (4.5% ABV),906
51121,10:12:55,916221930,132,5.0.14.0,1,4,start,trial_n,0,500,0,0,NA_n,1,928,1,regular beer (4.5% ABV)       and £ 0.15,0,1,non-alcoholic beer (0.0% ABV),0,1,Click on the answer of your choice,0,1,or,0,1,Which option would you prefer right NOW?,0,1,regular beer (4.5% ABV),929
51121,10:12:55,916221930,132,5.0.14.0,1,5,start,trial_n,0,500,0,0,NA_n,1,648,1,regular beer (4.5% ABV)       and £ 0.65,0,1,non-alcoholic beer (0.0% ABV),0,1,Click on the answer of your choice,0,1,or,0,1,Which option would you prefer right NOW?,0,1,regular beer (4.5% ABV),648
51121,10:12:55,916221930,132,5.0.14.0,1,6,start,trial_n,0,500,0,0,NA_n,1,736,1,regular beer (4.5% ABV)       and £ 1.65,0,1,non-alcoholic beer (0.0% ABV),0,1,Click on the answer of your choice,0,1,or,0,1,Which option would you prefer right NOW?,0,1,regular beer (4.5% ABV),737
51121,10:12:55,916221930,132,5.0.14.0,1,7,start,trial_n,0,500,0,0,NA_n,1,416,1,regular beer (4.5% ABV)       and £ 1.85,0,1,non-alcoholic beer (0.0% ABV),0,1,Click on the answer of your choice,0,1,or,0,1,Which option would you prefer right NOW?,0,1,regular beer (4.5% ABV),416
51121,10:12:55,916221930,132,5.0.14.0,1,8,start,trial_n,0,500,0,0,NA_n,1,400,1,regular beer (4.5% ABV)       and £ 2.05,0,1,non-alcoholic beer (0.0% ABV),0,1,Click on the answer of your choice,0,1,or,0,1,Which option would you prefer right NOW?,0,1,regular beer (4.5% ABV),400
51121,10:12:55,916221930,132,5.0.14.0,1,9,start,trial_n,0,500,0,0,NA_n,1,983,1,regular beer (4.5% ABV)       and £ 2.15,0,1,non-alcoholic beer (0.0% ABV),0,1,Click on the answer of your choice,0,1,or,0,1,Which option would you prefer right NOW?,0,1,regular beer (4.5% ABV),984
51121,10:12:55,916221930,132,5.0.14.0,1,10,start,trial_n,0,500,0,0,NA_n,1,720,1,regular beer (4.5% ABV)       and £ 3.15,0,1,non-alcoholic beer (0.0% ABV),0,1,Click on the answer of your choice,0,1,or,0,1,Which option would you prefer right NOW?,0,1,regular beer (4.5% ABV),720
51121,10:12:55,916221930,132,5.0.14.0,1,11,start,trial_n,0,500,0,0,NA_n,1,728,1,regular beer (4.5% ABV)       and £ 3.2,0,1,non-alcoholic beer (0.0% ABV),0,1,Click on the answer of your choice,0,1,or,0,1,Which option would you prefer right NOW?,0,1,regular beer (4.5% ABV),728
51121,10:12:55,916221930,132,5.0.14.0,1,12,start,trial_n,0,500,0,0,NA_n,1,537,1,regular beer (4.5% ABV)       and £ 3.7,0,1,non-alcoholic beer (0.0% ABV),0,1,Click on the answer of your choice,0,1,or,0,1,Which option would you prefer right NOW?,0,1,regular beer (4.5% ABV),537
51121,10:12:55,916221930,132,5.0.14.0,1,13,start,trial_n,0,500,0,0,NA_n,1,599,1,regular beer (4.5% ABV)       and £ 3.75,0,1,non-alcoholic beer (0.0% ABV),0,1,Click on the answer of your choice,0,1,or,0,1,Which option would you prefer right NOW?,0,1,regular beer (4.5% ABV),600
51121,10:12:55,916221930,132,5.0.14.0,1,14,start,trial_n,0,500,0,0,NA_n,1,560,1,regular beer (4.5% ABV)       and £ 4.75,0,1,non-alcoholic beer (0.0% ABV),0,1,Click on the answer of your choice,0,1,or,0,1,Which option would you prefer right NOW?,0,1,regular beer (4.5% ABV),560
51121,10:12:55,916221930,132,5.0.14.0,1,15,start,trial_n,0,500,0,0,NA_n,1,841,1,regular beer (4.5% ABV)       and £ 4.85,0,1,non-alcoholic beer (0.0% ABV),0,1,Click on the answer of your choice,0,1,or,0,1,Which option would you prefer right NOW?,0,1,regular beer (4.5% ABV),841
51121,10:12:55,916221930,132,5.0.14.0,1,16,start,trial_n,0,500,0,0,NA_n,1,1282,1,regular beer (4.5% ABV)       and £ 5.05,0,1,non-alcoholic beer (0.0% ABV),0,1,Click on the answer of your choice,0,1,or,0,1,Which option would you prefer right NOW?,0,1,regular beer (4.5% ABV),1282
51121,10:12:55,916221930,132,5.0.14.0,1,17,start,trial_n,0,500,0,0,NA_n,1,432,1,regular beer (4.5% ABV)       and £ 5.55,0,1,non-alcoholic beer (0.0% ABV),0,1,Click on the answer of your choice,0,1,or,0,1,Which option would you prefer right NOW?,0,1,regular beer (4.5% ABV),433
51121,10:12:55,916221930,132,5.0.14.0,1,18,start,trial_n,0,500,0,0,NA_n,1,481,1,regular beer (4.5% ABV)       and £ 6.55,0,1,non-alcoholic beer (0.0% ABV),0,1,Click on the answer of your choice,0,1,or,0,1,Which option would you prefer right NOW?,0,1,regular beer (4.5% ABV),481
51121,10:12:55,916221930,132,5.0.14.0,1,19,start,trial_n,0,500,0,0,NA_n,1,456,1,regular beer (4.5% ABV)       and £ 6.6,0,1,non-alcoholic beer (0.0% ABV),0,1,Click on the answer of your choice,0,1,or,0,1,Which option would you prefer right NOW?,0,1,regular beer (4.5% ABV),457
51121,10:12:55,916221930,132,5.0.14.0,1,20,start,trial_n,0,500,0,0,NA_n,1,811,1,regular beer (4.5% ABV)       and £ 6.8,0,1,non-alcoholic beer (0.0% ABV),0,1,Click on the answer of your choice,0,1,or,0,1,Which option would you prefer right NOW?,0,1,regular beer (4.5% ABV),811
51121,10:12:55,916221930,132,5.0.14.0,1,21,start,trial_n,0,500,0,0,NA_n,1,650,1,regular beer (4.5% ABV)       and £ 7.3,0,1,non-alcoholic beer (0.0% ABV),0,1,Click on the answer of your choice,0,1,or,0,1,Which option would you prefer right NOW?,0,1,regular beer (4.5% ABV),650
51121,10:12:55,916221930,132,5.0.14.0,1,22,start,trial_n,0,500,0,0,NA_n,1,746,1,regular beer (4.5% ABV)       and £ 7.4,0,1,non-alcoholic beer (0.0% ABV),0,1,Click on the answer of your choice,0,1,or,0,1,Which option would you prefer right NOW?,0,1,regular beer (4.5% ABV),746
51121,10:12:55,916221930,132,5.0.14.0,1,23,start,trial_n,0,500,0,0,NA_n,1,540,1,regular beer (4.5% ABV)       and £ 8.4,0,1,non-alcoholic beer (0.0% ABV),0,1,Click on the answer of your choice,0,1,or,0,1,Which option would you prefer right NOW?,0,1,regular beer (4.5% ABV),541
51121,10:12:55,916221930,132,5.0.14.0,1,24,start,trial_n,0,500,0,0,NA_n,1,841,1,regular beer (4.5% ABV)       and £ 8.45,0,1,non-alcoholic beer (0.0% ABV),0,1,Click on the answer of your choice,0,1,or,0,1,Which option would you prefer right NOW?,0,1,regular beer (4.5% ABV),842
51121,10:12:55,916221930,132,5.0.14.0,1,25,start,trial_n,0,500,0,0,NA_n,1,686,1,regular beer (4.5% ABV)       and £ 8.55,0,1,non-alcoholic beer (0.0% ABV),0,1,Click on the answer of your choice,0,1,or,0,1,Which option would you prefer right NOW?,0,1,regular beer (4.5% ABV),687
51121,10:12:55,916221930,132,5.0.14.0,1,26,start,trial_n,0,500,0,0,NA_n,1,685,1,regular beer (4.5% ABV)       and £ 9.05,0,1,non-alcoholic beer (0.0% ABV),0,1,Click on the answer of your choice,0,1,or,0,1,Which option would you prefer right NOW?,0,1,regular beer (4.5% ABV),685
51121,10:12:55,916221930,132,5.0.14.0,1,27,start,trial_n,0,500,0,0,NA_n,1,604,1,regular beer (4.5% ABV)       and £ 9.25,0,1,non-alcoholic beer (0.0% ABV),0,1,Click on the answer of your choice,0,1,or,0,1,Which option would you prefer right NOW?,0,1,regular beer (4.5% ABV),605
51121,10:12:55,916221930,132,5.0.14.0,1,28,start,trial_n,0,500,0,0,NA_n,1,605,1,regular beer (4.5% ABV)       and £ 9.3,0,1,non-alcoholic beer (0.0% ABV),0,1,Click on the answer of your choice,0,1,or,0,1,Which option would you prefer right NOW?,0,1,regular beer (4.5% ABV),605
51121,10:12:55,916221930,132,5.0.14.0,1,29,start,trial_n,0,500,0,0,NA_n,1,820,1,regular beer (4.5% ABV)       and £ 10.3,0,1,non-alcoholic beer (0.0% ABV),0,1,Click on the answer of your choice,0,1,or,0,1,Which option would you prefer right NOW?,0,1,regular beer (4.5% ABV),820
50521,4:13:53,440792769,128,5.0.14.0,1,1,start,base_q,0,500,0,0,beer,0,1273,1,regular beer (4.5% ABV),3,1,non-alcoholic beer (0.0% ABV),3,1,or,3,1,Click on the answer of your choice,3,1,Which option would you prefer right NOW?,3,0,0,0
50521,4:13:53,440792769,128,5.0.14.0,1,2,start,check_beer,0,500,0,0,beer,0,742,1,You chose regular beer.       Please confirm your choice by again clicking on your chosen option.,0,1,regular beer (4.5% ABV),0,1,non-alcoholic beer (0.0% ABV),0,1,or,0,1,Click on the answer of your choice,0,1,Which option would you prefer right NOW?,0
50521,4:13:53,440792769,128,5.0.14.0,1,4,start,trial_e,0,500,0,0,beer,1,683,1,regular beer (4.5% ABV),0,1,non-alcoholic beer (0.0% ABV)       and £ 0.05,0,1,Click on the answer of your choice,0,1,or,0,1,Which option would you prefer right NOW?,0,1,regular beer (4.5% ABV),684
50521,4:13:53,440792769,128,5.0.14.0,1,5,start,trial_e,0,500,0,0,beer,1,1004,1,regular beer (4.5% ABV),0,1,non-alcoholic beer (0.0% ABV)       and £ 0.25,0,1,Click on the answer of your choice,0,1,or,0,1,Which option would you prefer right NOW?,0,1,regular beer (4.5% ABV),1004
50521,4:13:53,440792769,128,5.0.14.0,1,6,start,trial_e,0,500,0,0,beer,1,674,1,regular beer (4.5% ABV),0,1,non-alcoholic beer (0.0% ABV)       and £ 0.75,0,1,Click on the answer of your choice,0,1,or,0,1,Which option would you prefer right NOW?,0,1,regular beer (4.5% ABV),675
50521,4:13:53,440792769,128,5.0.14.0,1,7,start,trial_e,0,500,0,0,NA,0,597,1,regular beer (4.5% ABV),1,1,non-alcoholic beer (0.0% ABV)       and £ 0.85,1,1,Click on the answer of your choice,1,1,or,1,1,Which option would you prefer right NOW?,1,1,regular beer (4.5% ABV),597
50521,4:13:53,440792769,128,5.0.14.0,1,8,start,check_finalE,0,500,0,0,beer,0,427,1,You chose non-alcoholic beer.       Please confirm your choice by again clicking on your chosen option.,0,1,regular beer (4.5% ABV),0,1,non-alcoholic beer (0.0% ABV)       and £ 0.85,0,1,or,0,1,Click on the answer of your choice,0,1,Which option would you prefer right NOW?,0
50521,4:13:53,440792769,128,5.0.14.0,1,9,start,trial_e,0,500,0,0,beer,1,65,1,regular beer (4.5% ABV),2,1,non-alcoholic beer (0.0% ABV)       and £ 1.85,2,1,Click on the answer of your choice,2,1,or,2,1,Which option would you prefer right NOW?,2,1,regular beer (4.5% ABV),68
50521,4:13:53,440792769,128,5.0.14.0,1,10,start,trial_e,0,500,0,0,beer,1,423,1,regular beer (4.5% ABV),0,1,non-alcoholic beer (0.0% ABV)       and £ 2.05,0,1,Click on the answer of your choice,0,1,or,0,1,Which option would you prefer right NOW?,0,1,regular beer (4.5% ABV),424
50521,4:13:53,440792769,128,5.0.14.0,1,11,start,trial_e,0,500,0,0,beer,1,601,1,regular beer (4.5% ABV),0,1,non-alcoholic beer (0.0% ABV)       and £ 3.05,0,1,Click on the answer of your choice,0,1,or,0,1,Which option would you prefer right NOW?,0,1,regular beer (4.5% ABV),601
50521,4:13:53,440792769,128,5.0.14.0,1,12,start,trial_e,0,500,0,0,beer,1,597,1,regular beer (4.5% ABV),0,1,non-alcoholic beer (0.0% ABV)       and £ 3.15,0,1,Click on the answer of your choice,0,1,or,0,1,Which option would you prefer right NOW?,0,1,regular beer (4.5% ABV),597
50521,4:13:53,440792769,128,5.0.14.0,1,13,start,trial_e,0,500,0,0,beer,1,983,1,regular beer (4.5% ABV),0,1,non-alcoholic beer (0.0% ABV)       and £ 3.2,0,1,Click on the answer of your choice,0,1,or,0,1,Which option would you prefer right NOW?,0,1,regular beer (4.5% ABV),983
50521,4:13:53,440792769,128,5.0.14.0,1,14,start,trial_e,0,500,0,0,beer,1,752,1,regular beer (4.5% ABV),0,1,non-alcoholic beer (0.0% ABV)       and £ 3.7,0,1,Click on the answer of your choice,0,1,or,0,1,Which option would you prefer right NOW?,0,1,regular beer (4.5% ABV),752
50521,4:13:53,440792769,128,5.0.14.0,1,15,start,trial_e,0,500,0,0,NA,0,548,1,regular beer (4.5% ABV),0,1,non-alcoholic beer (0.0% ABV)       and £ 3.9,0,1,Click on the answer of your choice,0,1,or,0,1,Which option would you prefer right NOW?,0,1,regular beer (4.5% ABV),550
50521,4:13:53,440792769,128,5.0.14.0,1,16,start,check_finalE,0,500,0,0,beer,0,701,1,You chose non-alcoholic beer.       Please confirm your choice by again clicking on your chosen option.,0,1,regular beer (4.5% ABV),0,1,non-alcoholic beer (0.0% ABV)       and £ 3.9,0,1,or,0,1,Click on the answer of your choice,0,1,Which option would you prefer right NOW?,0
50521,4:13:53,440792769,128,5.0.14.0,1,17,start,trial_e,0,500,0,0,NA,0,68,1,regular beer (4.5% ABV),3,1,non-alcoholic beer (0.0% ABV)       and £ 4,3,1,Click on the answer of your choice,3,1,or,3,1,Which option would you prefer right NOW?,3,1,regular beer (4.5% ABV),69
50521,4:13:53,440792769,128,5.0.14.0,1,18,start,check_finalE,0,500,0,0,beer,0,319,1,You chose non-alcoholic beer.       Please confirm your choice by again clicking on your chosen option.,0,1,regular beer (4.5% ABV),0,1,non-alcoholic beer (0.0% ABV)       and £ 4,0,1,or,0,1,Click on the answer of your choice,0,1,Which option would you prefer right NOW?,0
50521,4:13:53,440792769,128,5.0.14.0,1,19,start,trial_e,0,500,0,0,NA,0,179,1,regular beer (4.5% ABV),0,1,non-alcoholic beer (0.0% ABV)       and £ 4.5,0,1,Click on the answer of your choice,0,1,or,0,1,Which option would you prefer right NOW?,0,1,regular beer (4.5% ABV),179
50521,4:13:53,440792769,128,5.0.14.0,1,20,start,check_finalE,0,500,0,0,beer,0,536,1,You chose non-alcoholic beer.       Please confirm your choice by again clicking on your chosen option.,0,1,regular beer (4.5% ABV),0,1,non-alcoholic beer (0.0% ABV)       and £ 4.5,0,1,or,0,1,Click on the answer of your choice,0,1,Which option would you prefer right NOW?,0
50521,4:13:53,440792769,128,5.0.14.0,1,21,start,trial_e,0,500,0,0,NA,0,234,1,regular beer (4.5% ABV),0,1,non-alcoholic beer (0.0% ABV)       and £ 5.5,0,1,Click on the answer of your choice,0,1,or,0,1,Which option would you prefer right NOW?,0,1,regular beer (4.5% ABV),234
50521,4:13:53,440792769,128,5.0.14.0,1,22,start,check_finalE,0,500,0,0,beer,0,281,1,You chose non-alcoholic beer.       Please confirm your choice by again clicking on your chosen option.,0,1,regular beer (4.5% ABV),0,1,non-alcoholic beer (0.0% ABV)       and £ 5.5,0,1,or,0,1,Click on the answer of your choice,0,1,Which option would you prefer right NOW?,0
50521,4:13:53,440792769,128,5.0.14.0,1,23,start,trial_e,0,500,0,0,NA,0,255,1,regular beer (4.5% ABV),1,1,non-alcoholic beer (0.0% ABV)       and £ 5.55,1,1,Click on the answer of your choice,1,1,or,1,1,Which option would you prefer right NOW?,1,1,regular beer (4.5% ABV),256
50521,4:13:53,440792769,128,5.0.14.0,1,24,start,check_finalE,0,500,0,0,beer,0,355,1,You chose non-alcoholic beer.       Please confirm your choice by again clicking on your chosen option.,0,1,regular beer (4.5% ABV),0,1,non-alcoholic beer (0.0% ABV)       and £ 5.55,0,1,or,0,1,Click on the answer of your choice,0,1,Which option would you prefer right NOW?,0
50521,4:13:53,440792769,128,5.0.14.0,1,25,start,trial_e,0,500,0,0,NA,0,330,1,regular beer (4.5% ABV),0,1,non-alcoholic beer (0.0% ABV)       and £ 6.55,0,1,Click on the answer of your choice,0,1,or,0,1,Which option would you prefer right NOW?,0,1,regular beer (4.5% ABV),331
50521,4:13:53,440792769,128,5.0.14.0,1,26,start,check_finalE,0,500,0,0,beer,0,739,1,You chose non-alcoholic beer.       Please confirm your choice by again clicking on your chosen option.,0,1,regular beer (4.5% ABV),0,1,non-alcoholic beer (0.0% ABV)       and £ 6.55,0,1,or,0,1,Click on the answer of your choice,0,1,Which option would you prefer right NOW?,0
50521,4:13:53,440792769,128,5.0.14.0,1,27,start,trial_e,0,500,0,0,NA,0,20,1,regular beer (4.5% ABV),0,1,non-alcoholic beer (0.0% ABV)       and £ 7.05,0,1,Click on the answer of your choice,0,1,or,0,1,Which option would you prefer right NOW?,0,1,regular beer (4.5% ABV),21
50521,4:13:53,440792769,128,5.0.14.0,1,28,start,check_finalE,0,500,0,0,NA,1,399,1,You chose non-alcoholic beer.       Please confirm your choice by again clicking on your chosen option.,2,1,regular beer (4.5% ABV),2,1,non-alcoholic beer (0.0% ABV)       and £ 7.05,2,1,or,2,1,Click on the answer of your choice,2,1,Which option would you prefer right NOW?,2
51121,7:13:11,5601420,119,5.0.14.0,1,1,start,base_q,0,500,0,0,beer,0,12313,1,regular beer (4.5% ABV),0,1,non-alcoholic beer (0.0% ABV),0,1,or,0,1,Click on the answer of your choice,0,1,Which option would you prefer right NOW?,0,0,0,0
51121,7:13:11,5601420,119,5.0.14.0,1,2,start,check_beer,0,500,0,0,beer,0,13663,1,You chose regular beer.       Please confirm your choice by again clicking on your chosen option.,1,1,regular beer (4.5% ABV),1,1,non-alcoholic beer (0.0% ABV),1,1,or,1,1,Click on the answer of your choice,1,1,Which option would you prefer right NOW?,1
51121,7:13:11,5601420,119,5.0.14.0,1,4,start,trial_e,0,500,0,0,beer,1,24637,1,regular beer (4.5% ABV),0,1,non-alcoholic beer (0.0% ABV)       and £ 0.1,0,1,Click on the answer of your choice,0,1,or,0,1,Which option would you prefer right NOW?,0,1,regular beer (4.5% ABV),24638
51121,7:13:11,5601420,119,5.0.14.0,1,5,start,trial_e,0,500,0,0,NA,0,1292,1,regular beer (4.5% ABV),1,1,non-alcoholic beer (0.0% ABV)       and £ 0.3,1,1,Click on the answer of your choice,1,1,or,1,1,Which option would you prefer right NOW?,1,1,regular beer (4.5% ABV),1294
